ax,ay,az,gx,gy,gz,d1,d2,d3,d4,target
3427,-1924,15855,669,756,-1437,456.0,434.0,596.0,618.0,0
3475,-1936,15947,649,548,-1391,456.0,442.0,596.0,611.0,0
3623,-1852,15851,747,293,-1302,451.0,421.0,603.0,611.0,0
3751,-1644,15911,702,-65,-1079,451.0,438.0,596.0,603.0,0
3879,-1368,15771,618,-162,-873,456.0,430.0,596.0,618.0,0
3871,-1496,15527,655,-303,-675,456.0,438.0,603.0,611.0,0
3991,-1264,15663,594,-295,-395,451.0,442.0,596.0,611.0,0
3811,-1416,15551,708,-174,-122,461.0,421.0,596.0,611.0,0
3787,-1280,15483,651,-22,130,447.0,405.0,603.0,611.0,0
3483,-1220,15547,676,185,347,456.0,425.0,603.0,611.0,0
3279,-1364,15671,592,202,444,456.0,434.0,596.0,611.0,0
3203,-1584,15771,588,144,468,456.0,425.0,596.0,611.0,0
2987,-1760,15487,927,-187,111,451.0,430.0,596.0,618.0,0
3123,-1580,15423,1035,-286,-76,461.0,430.0,596.0,611.0,0
3119,-1432,15355,1020,-299,-246,425.0,447.0,611.0,611.0,0
3287,-1236,15691,1079,-277,-231,461.0,447.0,581.0,611.0,0
3359,-1156,15555,1121,-230,-178,456.0,417.0,603.0,611.0,0
3395,-1004,15367,1241,-242,-200,456.0,447.0,603.0,626.0,0
3635,-816,15631,1181,-244,-108,456.0,442.0,596.0,611.0,0
3503,-688,15791,1099,-246,73,456.0,421.0,596.0,611.0,0
3515,-568,16067,1044,-323,211,461.0,442.0,596.0,611.0,0
3503,-316,16167,758,-392,334,456.0,413.0,596.0,611.0,0
3247,-404,16491,244,-555,504,456.0,413.0,596.0,611.0,0
2975,-664,16627,57,-791,569,456.0,442.0,596.0,611.0,0
2771,-796,16463,-152,-816,520,461.0,438.0,596.0,611.0,0
2739,-956,16035,-192,-1069,273,451.0,461.0,603.0,611.0,0
2971,-1024,15903,-238,-1163,56,456.0,421.0,596.0,611.0,0
3151,-916,15531,-220,-889,-114,465.0,434.0,596.0,611.0,0
3015,-792,15431,-191,-629,-242,456.0,434.0,596.0,618.0,0
2999,-828,15203,-66,-372,-293,451.0,461.0,603.0,611.0,0
3059,-960,15143,-29,-227,-201,456.0,421.0,596.0,611.0,0
3135,-976,15259,-29,-335,-96,461.0,442.0,588.0,611.0,0
2931,-992,15595,33,-616,60,456.0,438.0,596.0,611.0,0
2575,-956,15731,286,-876,123,456.0,438.0,596.0,618.0,0
2367,-932,16131,498,-1176,87,451.0,442.0,603.0,618.0,0
2335,-1056,15891,455,-1307,-141,456.0,425.0,596.0,611.0,0
2703,-1464,15739,258,-1167,-448,456.0,409.0,611.0,611.0,0
3611,-2556,15247,118,-269,-601,456.0,430.0,588.0,611.0,0
3943,-2464,15203,240,233,-772,451.0,442.0,596.0,618.0,0
4359,-2444,15111,228,783,-918,451.0,409.0,603.0,611.0,0
4795,-2336,15291,364,1169,-1141,461.0,413.0,588.0,618.0,0
4631,-1776,15339,754,1484,-1292,451.0,434.0,596.0,611.0,0
4375,-996,15579,960,1199,-887,512.0,425.0,596.0,626.0,0
4159,-428,15819,898,590,-298,456.0,434.0,603.0,611.0,0
4211,-120,15787,523,44,5,451.0,425.0,581.0,618.0,0
3979,-720,15483,225,-315,285,451.0,409.0,603.0,618.0,0
3799,-1100,15555,221,-673,670,456.0,430.0,596.0,611.0,0
3759,-1456,15523,287,-906,784,461.0,447.0,596.0,611.0,0
3839,-1800,15319,378,-1134,724,456.0,430.0,596.0,611.0,0
3671,-1892,15271,450,-1083,410,456.0,409.0,596.0,603.0,0
3659,-1996,15247,559,-945,192,456.0,425.0,596.0,611.0,0
3635,-1776,14967,793,-808,-36,434.0,438.0,596.0,611.0,0
3547,-964,14955,1201,-627,-295,461.0,430.0,596.0,611.0,0
3743,-564,15411,1216,-668,-252,456.0,425.0,596.0,611.0,0
3511,-328,15959,1211,-702,11,456.0,398.0,596.0,618.0,0
3347,24,16595,1138,-1103,333,456.0,438.0,596.0,611.0,0
3591,176,17239,502,-1778,522,456.0,447.0,596.0,611.0,0
3467,-84,18247,-668,-2535,472,456.0,425.0,588.0,611.0,0
3455,-572,18755,-2381,-3555,198,456.0,409.0,596.0,611.0,0
3579,-796,18407,-3836,-4436,84,461.0,438.0,596.0,603.0,0
3859,-2000,17667,-3640,-5288,-177,456.0,434.0,596.0,611.0,0
4567,-2160,17247,-2680,-5981,-209,456.0,430.0,603.0,611.0,0
5115,-964,17131,-3526,-6017,518,456.0,417.0,596.0,611.0,0
5095,-848,17119,-4274,-5900,703,451.0,438.0,588.0,603.0,0
5079,-1232,16635,-4528,-6114,903,456.0,434.0,596.0,611.0,0
5111,-1360,16195,-4460,-6524,1182,456.0,438.0,596.0,618.0,0
5279,-1560,15255,-4549,-6972,1324,456.0,425.0,611.0,611.0,0
5491,-1968,14023,-4605,-7104,1265,456.0,430.0,596.0,611.0,0
5791,-2504,13311,-4180,-7138,1160,451.0,430.0,603.0,618.0,0
6151,-2820,12431,-3381,-6682,1043,451.0,447.0,596.0,611.0,0
6323,-2824,11919,-2779,-6020,1112,456.0,438.0,596.0,603.0,0
6575,-3124,11483,-2151,-5162,1027,409.0,421.0,596.0,611.0,0
7159,-3240,11287,-1589,-4294,980,447.0,417.0,588.0,618.0,0
7687,-3696,11023,-1217,-3078,1102,456.0,480.0,596.0,618.0,0
8039,-4120,11031,-650,-1888,1383,456.0,447.0,596.0,611.0,0
8211,-4272,12059,-794,-814,1462,456.0,434.0,588.0,611.0,0
7991,-4496,12519,-1029,115,1473,456.0,417.0,588.0,611.0,0
7379,-5376,13859,-236,319,751,456.0,409.0,596.0,611.0,0
7135,-4848,14419,-43,-118,308,461.0,430.0,596.0,618.0,0
7183,-4400,15099,-338,-956,28,496.0,434.0,596.0,611.0,0
7327,-4088,15143,-567,-1691,-65,451.0,421.0,588.0,611.0,0
7439,-3824,15279,-433,-2361,63,456.0,417.0,596.0,611.0,0
7607,-3264,14783,-759,-2634,462,451.0,430.0,603.0,618.0,0
7495,-3108,14831,-1273,-2676,776,456.0,456.0,596.0,611.0,0
7467,-3740,14131,-1558,-2458,925,456.0,434.0,596.0,603.0,0
7459,-3728,13959,-2090,-2159,1062,456.0,421.0,596.0,618.0,0
7543,-4160,13631,-1851,-1873,1195,475.0,421.0,603.0,618.0,0
7215,-4876,12871,-2131,-1491,813,456.0,430.0,588.0,618.0,0
7075,-4976,13067,-1872,-1657,360,456.0,442.0,603.0,618.0,0
7207,-4684,13111,-1929,-2056,20,461.0,438.0,588.0,611.0,0
7587,-5036,12595,-1640,-2573,-352,451.0,417.0,588.0,611.0,0
7971,-5016,12475,-1538,-2773,-666,461.0,391.0,588.0,611.0,0
8391,-5036,12307,-1333,-2912,-668,461.0,421.0,596.0,611.0,0
8787,-5052,11767,-943,-2759,-619,485.0,442.0,596.0,618.0,0
9407,-5076,11563,-800,-2615,-490,456.0,417.0,596.0,611.0,0
9895,-5048,11211,-477,-2074,-261,456.0,413.0,588.0,611.0,0
9987,-5360,10915,-384,-1186,47,451.0,402.0,596.0,611.0,0
9951,-5516,10875,-72,-379,357,456.0,451.0,603.0,611.0,0
9887,-5672,10871,440,244,578,456.0,430.0,596.0,611.0,0
10003,-5560,11143,564,777,777,456.0,421.0,596.0,611.0,0
9707,-5704,11363,561,916,948,470.0,434.0,596.0,611.0,0
9435,-5932,11895,772,719,848,461.0,442.0,611.0,603.0,0
8939,-6100,12443,1086,190,750,461.0,425.0,596.0,611.0,0
8675,-5792,12855,1263,-420,614,456.0,421.0,588.0,611.0,0
8339,-5604,12999,1123,-857,450,461.0,438.0,596.0,618.0,0
8251,-5612,13019,997,-1182,261,461.0,417.0,596.0,611.0,0
8319,-5480,12935,1096,-1535,120,456.0,430.0,596.0,618.0,0
8507,-5192,13371,1254,-1471,8,461.0,434.0,596.0,611.0,0
8391,-4984,12963,1260,-1246,68,461.0,434.0,588.0,618.0,0
8663,-4976,12983,1001,-784,66,456.0,421.0,588.0,611.0,0
8723,-5064,12575,937,-167,17,456.0,421.0,596.0,618.0,0
8751,-5136,12779,825,495,-65,456.0,413.0,596.0,618.0,0
8619,-5276,12659,818,795,-82,456.0,456.0,596.0,611.0,0
8447,-5164,12855,1120,1066,-350,456.0,417.0,588.0,618.0,0
8403,-4848,12699,1053,1089,-299,456.0,402.0,596.0,618.0,0
8319,-4892,12843,999,960,-435,456.0,434.0,588.0,618.0,0
8607,-4844,13035,924,762,-497,456.0,447.0,596.0,611.0,0
8307,-4768,13279,833,680,-433,461.0,438.0,588.0,611.0,0
8327,-4880,13235,789,361,-423,456.0,421.0,596.0,611.0,0
8671,-4904,13071,699,199,-470,456.0,421.0,588.0,611.0,0
8531,-4856,13175,521,272,-531,451.0,413.0,581.0,618.0,0
8415,-4972,13075,408,109,-544,456.0,442.0,596.0,611.0,0
8587,-5116,13007,423,-87,-577,456.0,438.0,596.0,611.0,0
8531,-5036,12835,587,-97,-639,456.0,413.0,596.0,603.0,0
8715,-4980,12903,612,38,-546,456.0,417.0,596.0,611.0,0
8659,-4972,12815,600,-70,-394,456.0,394.0,611.0,611.0,0
8683,-4908,12823,588,100,-303,451.0,434.0,588.0,611.0,0
8483,-4692,13103,655,52,-187,456.0,438.0,596.0,611.0,0
8459,-4820,13247,306,268,99,461.0,417.0,596.0,611.0,0
8379,-4992,13075,190,456,186,461.0,438.0,596.0,603.0,0
8327,-5156,12995,219,654,205,456.0,447.0,596.0,611.0,0
8215,-5276,12975,276,683,188,456.0,402.0,611.0,611.0,0
8263,-5240,13175,305,680,-145,456.0,417.0,588.0,611.0,0
8059,-5260,12795,260,533,-335,456.0,405.0,603.0,611.0,0
7999,-5444,13183,316,329,-410,451.0,442.0,588.0,611.0,0
8135,-5088,13155,496,103,-498,456.0,434.0,596.0,611.0,0
8039,-4692,12983,497,19,-484,447.0,461.0,588.0,603.0,0
8079,-4596,12883,461,-161,-438,456.0,421.0,588.0,611.0,0
8119,-4596,12871,577,-205,-138,461.0,451.0,588.0,611.0,0
8167,-4688,12719,639,-71,-94,456.0,451.0,596.0,611.0,0
8219,-4772,12815,427,28,-114,451.0,413.0,588.0,603.0,0
8139,-5016,12831,544,71,-246,456.0,417.0,596.0,611.0,0
8195,-5108,12907,779,108,-337,456.0,413.0,596.0,611.0,0
8095,-5196,13007,838,213,-371,456.0,409.0,596.0,618.0,0
8231,-5200,13159,788,267,-467,456.0,442.0,596.0,611.0,0
8255,-5080,13263,805,211,-467,456.0,475.0,603.0,611.0,0
8291,-4908,13491,839,214,-436,461.0,434.0,596.0,611.0,0
8075,-4592,13655,736,150,-346,456.0,430.0,588.0,611.0,0
7999,-4536,13791,439,-27,-211,456.0,398.0,611.0,611.0,0
8107,-4592,13959,98,-235,-100,456.0,442.0,596.0,611.0,0
8139,-4612,14239,-215,-482,21,451.0,442.0,596.0,611.0,0
7871,-4720,14415,-710,-858,33,456.0,417.0,596.0,611.0,0
7891,-4788,14819,-977,-1492,12,456.0,417.0,596.0,618.0,0
7899,-4868,14423,-2678,-2741,-301,456.0,456.0,581.0,611.0,0
8143,-5284,14159,-3480,-3234,-495,456.0,461.0,603.0,618.0,0
8031,-5492,13499,-3978,-3529,-699,456.0,425.0,596.0,611.0,0
8299,-5576,12955,-4071,-3918,-780,456.0,417.0,588.0,603.0,0
8419,-5700,12471,-3744,-4325,-959,461.0,394.0,588.0,611.0,0
8779,-5756,12211,-3274,-4625,-1039,456.0,434.0,596.0,618.0,0
8863,-5624,11623,-2871,-4752,-895,456.0,447.0,603.0,618.0,0
9275,-5464,11523,-2785,-4783,-760,425.0,430.0,596.0,611.0,0
9539,-5476,11083,-3091,-4393,-568,451.0,405.0,588.0,603.0,0
9739,-5704,10723,-3307,-3860,-315,536.0,442.0,603.0,611.0,0
10027,-6596,10127,-1567,-3065,-31,451.0,425.0,588.0,603.0,0
9735,-6300,10371,-1282,-2784,7,447.0,434.0,596.0,611.0,0
10035,-6208,10439,-1769,-2358,-70,475.0,413.0,596.0,618.0,0
9899,-6544,10315,-2402,-1645,-252,461.0,456.0,596.0,603.0,0
9867,-7272,10147,-2391,-1112,-636,456.0,442.0,596.0,611.0,0
9619,-7676,10711,-1139,-1066,-904,461.0,465.0,596.0,611.0,0
9847,-7132,10979,-462,-980,-845,461.0,434.0,603.0,611.0,0
10395,-6256,10859,-211,-747,-763,470.0,409.0,588.0,611.0,0
10291,-5920,10971,-1317,-487,-698,461.0,451.0,596.0,611.0,0
9883,-6648,11391,-2056,-284,-579,461.0,447.0,588.0,611.0,0
9583,-6456,12291,-1147,-2160,-309,465.0,430.0,596.0,611.0,0
9731,-6008,11871,-1843,-2816,-364,465.0,417.0,588.0,611.0,0
10267,-6480,11487,-2570,-3313,-395,456.0,430.0,596.0,618.0,0
10347,-7076,10767,-2393,-3171,-311,461.0,430.0,596.0,611.0,0
10347,-7436,10011,-1962,-3017,-231,456.0,417.0,588.0,618.0,0
10531,-7460,9707,-1803,-2438,-274,461.0,425.0,596.0,611.0,0
10807,-7696,9083,-1907,-1898,-499,461.0,405.0,588.0,611.0,0
11043,-7824,8651,-1714,-1017,-570,461.0,430.0,596.0,611.0,0
11383,-8088,8039,-1221,-174,-481,461.0,447.0,596.0,611.0,0
11987,-8084,8071,-1249,848,-541,461.0,425.0,596.0,626.0,0
11887,-8016,7891,-2494,2444,-734,461.0,434.0,588.0,596.0,0
11559,-8964,8603,-2377,3275,-1110,461.0,405.0,581.0,611.0,0
11003,-9104,9943,-1288,3458,-1847,456.0,425.0,588.0,618.0,0
10487,-8176,10415,-461,2537,-2590,461.0,447.0,596.0,611.0,0
9975,-7312,10979,-1064,1763,-3111,461.0,413.0,581.0,618.0,0
9867,-7272,11051,-1752,781,-2724,461.0,405.0,588.0,611.0,0
10211,-7664,10707,-1029,251,-2907,461.0,417.0,588.0,603.0,0
9915,-7068,10863,136,-522,-3172,475.0,438.0,581.0,611.0,0
10207,-5636,10543,1126,-1332,-2804,456.0,425.0,588.0,603.0,0
10583,-4764,10643,452,-1765,-2291,456.0,417.0,596.0,618.0,0
10903,-5228,10071,-232,-2047,-1946,461.0,417.0,603.0,611.0,0
11031,-5708,10231,-481,-1889,-1806,461.0,409.0,596.0,611.0,0
11167,-6392,9967,-149,-2049,-1519,456.0,425.0,588.0,603.0,0
11295,-6456,9879,408,-2075,-1164,461.0,438.0,596.0,611.0,0
11423,-6336,9875,674,-1986,-809,542.0,417.0,603.0,611.0,0
11555,-6264,9699,162,-1763,-678,465.0,413.0,596.0,603.0,0
11431,-7412,10135,207,-1299,-553,461.0,447.0,588.0,611.0,0
11475,-7248,10279,599,-1291,-298,461.0,421.0,596.0,611.0,0
11499,-6820,10411,754,-1416,112,456.0,413.0,596.0,603.0,0
11519,-6576,10199,365,-1506,363,461.0,425.0,588.0,611.0,0
11695,-6908,10111,-83,-1525,479,461.0,421.0,596.0,618.0,0
11651,-6984,9967,-117,-1677,747,461.0,430.0,596.0,618.0,0
11815,-7000,9479,73,-1866,965,461.0,425.0,596.0,611.0,0
11711,-6936,9219,292,-1832,1121,456.0,405.0,596.0,618.0,0
11971,-6712,9131,108,-1923,1167,461.0,417.0,596.0,611.0,0
11859,-6816,9235,-185,-1666,1167,456.0,421.0,588.0,611.0,0
11887,-7088,9127,230,-2131,1305,461.0,425.0,596.0,611.0,0
11743,-7000,9339,51,-2256,1533,461.0,438.0,596.0,603.0,0
11383,-7512,8819,257,-2056,1481,461.0,430.0,574.0,611.0,0
11315,-7328,9079,193,-2311,1542,461.0,421.0,581.0,603.0,0
11259,-7108,8803,298,-2319,1756,456.0,442.0,588.0,618.0,0
11091,-7424,8979,479,-2712,1731,461.0,438.0,588.0,618.0,0
11151,-7528,9083,649,-2790,1741,461.0,425.0,596.0,611.0,0
11343,-7608,8935,798,-2976,1813,461.0,417.0,588.0,618.0,0
11619,-7440,8739,418,-2809,1889,461.0,421.0,588.0,603.0,0
11627,-7684,8107,181,-2440,2058,470.0,421.0,574.0,611.0,0
11675,-7628,7963,193,-2075,2277,461.0,438.0,588.0,611.0,0
12155,-7728,7599,230,-1644,2608,461.0,447.0,603.0,603.0,0
12267,-7968,7387,250,-1099,2799,456.0,417.0,581.0,611.0,0
12407,-8500,7303,380,-722,2822,456.0,409.0,588.0,603.0,0
12167,-8648,7303,469,-315,2678,456.0,434.0,588.0,611.0,0
12139,-8596,7491,1105,-17,2547,456.0,421.0,596.0,603.0,0
11851,-8920,7291,937,74,2382,456.0,413.0,568.0,603.0,0
11375,-9512,7107,1470,-107,1711,456.0,417.0,588.0,611.0,0
11447,-9408,6851,1802,-304,1045,461.0,430.0,596.0,618.0,0
11363,-9228,6871,2403,-509,498,456.0,430.0,596.0,611.0,0
11387,-8712,6939,2734,-541,31,461.0,430.0,596.0,603.0,0
11295,-8628,7043,3199,-539,-241,456.0,417.0,596.0,611.0,0
11311,-8280,7207,4044,-440,-466,456.0,417.0,596.0,611.0,0
11167,-7712,7823,4245,-236,-566,461.0,425.0,588.0,611.0,0
10947,-7320,8939,4268,-135,-626,456.0,430.0,588.0,603.0,0
10751,-7016,10263,3348,-223,-372,451.0,421.0,588.0,603.0,0
10631,-7112,10751,3018,-603,-160,456.0,421.0,588.0,611.0,0
10907,-7088,11051,2412,-821,-207,461.0,434.0,588.0,611.0,0
11083,-7428,11147,1953,-1147,-218,456.0,442.0,588.0,603.0,0
11203,-7820,10855,1152,-1249,-126,461.0,413.0,596.0,603.0,0
11583,-7848,10499,391,-1349,-32,456.0,409.0,588.0,611.0,0
11951,-7892,10267,-219,-1312,35,456.0,417.0,588.0,611.0,0
12071,-7896,9871,-690,-1267,269,456.0,430.0,596.0,603.0,0
11839,-7912,9491,-780,-1219,474,465.0,434.0,588.0,611.0,0
11675,-7848,9311,-1043,-1355,781,451.0,451.0,588.0,611.0,0
11767,-7912,8963,-1316,-1218,1007,456.0,425.0,588.0,618.0,0
11631,-8180,8503,-1188,-1121,1124,456.0,413.0,588.0,618.0,0
11243,-8340,8107,-1092,-1180,948,461.0,434.0,588.0,611.0,0
11227,-8400,8095,-1016,-1287,863,456.0,442.0,596.0,618.0,0
11455,-8284,7955,-935,-1399,794,475.0,451.0,588.0,611.0,0
11279,-8212,8275,-670,-1601,745,456.0,402.0,588.0,618.0,0
11323,-7948,8383,-1071,-1841,874,456.0,438.0,596.0,611.0,0
11311,-8192,8151,-977,-2027,1027,456.0,434.0,581.0,611.0,0
10991,-8344,7867,-268,-2396,1069,461.0,451.0,596.0,603.0,0
11179,-8296,7799,427,-2650,1077,456.0,413.0,588.0,618.0,0
11443,-7956,7271,80,-2514,1105,456.0,434.0,588.0,581.0,0
11479,-8388,6807,-893,-2150,1114,451.0,417.0,588.0,618.0,0
11531,-9428,6307,-592,-1847,861,456.0,430.0,596.0,618.0,0
11703,-10160,6291,243,-1434,423,456.0,438.0,588.0,611.0,0
11791,-10044,6039,587,-784,-56,456.0,430.0,588.0,611.0,0
11691,-10288,6223,209,1063,-1263,456.0,417.0,588.0,611.0,0
11583,-10576,6319,788,1782,-1899,456.0,434.0,588.0,611.0,0
11867,-10036,6795,1675,2029,-2384,451.0,417.0,603.0,618.0,0
11851,-8764,7235,2100,2363,-2572,456.0,417.0,596.0,611.0,0
11863,-7700,7543,1248,2488,-2574,456.0,413.0,588.0,626.0,0
11723,-7632,7503,66,2665,-2320,456.0,430.0,588.0,611.0,0
11387,-8432,7539,-371,2690,-2334,456.0,451.0,596.0,611.0,0
11499,-9068,7303,-493,2431,-2560,456.0,425.0,596.0,611.0,0
11615,-9680,7111,156,2389,-2956,461.0,413.0,588.0,611.0,0
11695,-9788,7455,882,2213,-3545,461.0,425.0,588.0,603.0,0
11655,-8840,7827,1540,2101,-4012,456.0,438.0,588.0,618.0,0
11647,-7708,8347,1857,1897,-4014,456.0,421.0,588.0,611.0,0
11467,-7080,8783,1865,1489,-3684,451.0,447.0,596.0,596.0,0
12115,-6584,9111,1321,657,-3292,456.0,425.0,588.0,611.0,0
12659,-6776,9251,87,625,-3067,456.0,405.0,603.0,618.0,0
12475,-7532,9167,-554,952,-2615,456.0,430.0,588.0,611.0,0
11883,-7816,8839,-272,1172,-2291,461.0,438.0,588.0,618.0,0
11755,-7940,8503,-562,1863,-2228,456.0,413.0,588.0,626.0,0
11483,-7600,8387,-1794,2934,-2431,456.0,442.0,596.0,626.0,0
10787,-7832,8723,-3054,4052,-2929,456.0,434.0,596.0,626.0,0
10515,-8008,9403,-1457,4674,-2639,456.0,442.0,588.0,596.0,0
10091,-7668,9899,433,4941,-2149,461.0,398.0,588.0,626.0,0
10063,-5812,10611,975,4567,-1873,456.0,413.0,596.0,611.0,0
9891,-4316,11439,531,3969,-1176,456.0,456.0,581.0,618.0,0
9527,-4092,11631,-1581,3464,-721,456.0,421.0,596.0,611.0,0
9895,-5600,10695,-2381,2886,288,456.0,425.0,596.0,603.0,0
9859,-6928,10279,-1589,1940,397,456.0,417.0,596.0,603.0,0
10295,-7256,9787,-438,1248,312,456.0,447.0,588.0,596.0,0
10711,-7320,9539,-588,1370,39,456.0,430.0,588.0,596.0,0
10771,-7784,8919,-869,1728,-437,456.0,430.0,596.0,596.0,0
10891,-8212,9139,-745,1836,-1198,456.0,442.0,611.0,596.0,0
10811,-8616,9571,29,1501,-1950,461.0,434.0,596.0,588.0,0
11059,-8200,9523,485,1367,-1839,461.0,417.0,603.0,596.0,0
10739,-7640,9779,985,705,-1832,456.0,434.0,596.0,588.0,0
10923,-7260,9591,901,224,-1742,456.0,442.0,588.0,588.0,0
10727,-6524,9735,1394,-987,-1094,456.0,421.0,596.0,603.0,0
11023,-5472,9995,1205,-1646,-819,442.0,442.0,588.0,596.0,0
11239,-5696,9387,716,-978,-527,451.0,425.0,596.0,603.0,0
11271,-6564,9143,934,-1196,-222,451.0,417.0,596.0,603.0,0
11227,-6704,9195,1202,-1461,-233,461.0,442.0,588.0,611.0,0
11735,-6456,8939,1108,-1393,-54,456.0,421.0,596.0,603.0,0
11775,-7088,8987,1250,-1103,80,461.0,442.0,588.0,596.0,0
11935,-7376,9243,1883,-1252,-13,456.0,438.0,596.0,603.0,0
11991,-7688,8719,2267,-973,-13,456.0,438.0,588.0,596.0,0
12035,-7640,8975,2298,-498,-189,461.0,442.0,588.0,634.0,0
12299,-7816,8819,2220,91,-134,456.0,405.0,596.0,603.0,0
12131,-7332,9443,2584,656,-240,456.0,413.0,581.0,596.0,0
11771,-7256,9251,1833,1242,-143,461.0,425.0,596.0,603.0,0
11799,-7320,9483,1663,1736,52,461.0,442.0,596.0,603.0,0
11367,-7672,9387,2154,1671,-323,461.0,402.0,596.0,603.0,0
10943,-6088,10007,1488,1808,-526,465.0,413.0,603.0,611.0,0
10639,-6148,10911,1215,1642,-764,461.0,442.0,603.0,611.0,0
10315,-6276,10551,1168,1786,-848,461.0,434.0,588.0,603.0,0
10395,-5784,11055,1641,994,-728,456.0,398.0,596.0,611.0,0
10619,-5708,10939,2058,851,-631,461.0,417.0,596.0,603.0,0
10735,-5072,11471,2158,143,-659,456.0,405.0,596.0,611.0,0
10639,-4976,11975,1665,-189,-824,461.0,438.0,596.0,611.0,0
10711,-4848,11967,1190,-732,-845,485.0,434.0,603.0,611.0,0
10863,-4964,11499,1633,-1173,-818,456.0,394.0,596.0,611.0,0
11243,-4668,11603,2611,-1735,-576,512.0,409.0,596.0,603.0,0
11743,-5080,11575,2557,-1727,-840,461.0,442.0,596.0,611.0,0
11847,-4720,12279,1187,-1352,-569,461.0,434.0,596.0,611.0,0
11583,-5416,11935,421,-731,-538,456.0,391.0,596.0,611.0,0
11687,-5740,11503,82,-489,-289,470.0,425.0,596.0,611.0,0
11507,-5480,11499,293,-165,-99,461.0,442.0,603.0,611.0,0
10963,-5864,11083,383,213,-103,456.0,430.0,596.0,603.0,0
10831,-5392,11463,318,271,-287,461.0,421.0,596.0,611.0,0
10655,-5088,11127,379,441,14,456.0,430.0,596.0,603.0,0
10771,-4836,11023,101,275,184,461.0,430.0,596.0,611.0,0
10771,-5128,10799,281,285,397,461.0,398.0,603.0,618.0,0
10539,-5136,11259,4,2,264,456.0,434.0,596.0,611.0,0
10155,-5368,11471,-29,-482,368,461.0,434.0,596.0,611.0,0
10571,-5152,11551,22,-1213,184,456.0,417.0,596.0,611.0,0
10707,-5736,11287,208,-1617,364,456.0,434.0,603.0,611.0,0
10715,-6072,10875,505,-2222,324,461.0,421.0,603.0,611.0,0
11143,-6516,10523,1048,-2522,-102,461.0,447.0,596.0,611.0,0
11283,-6156,10771,1506,-2168,-140,470.0,421.0,596.0,611.0,0
11199,-6332,10355,1713,-2252,154,461.0,417.0,596.0,611.0,0
11367,-5924,10391,1501,-1930,106,456.0,430.0,603.0,626.0,0
11147,-6260,10367,1634,-1482,43,442.0,447.0,596.0,618.0,0
10735,-6020,10887,1475,-1562,-656,461.0,442.0,596.0,611.0,0
10631,-5816,11079,1183,-1740,-1088,461.0,413.0,603.0,611.0,0
10879,-5416,10663,1056,-1759,-496,461.0,417.0,596.0,611.0,0
11303,-5540,9879,285,-1243,-619,451.0,421.0,603.0,611.0,0
11127,-5936,9555,179,-857,-776,461.0,442.0,581.0,603.0,0
11251,-5444,9947,1025,-602,-909,485.0,442.0,588.0,603.0,0
11099,-5168,9915,1094,-953,-744,461.0,417.0,588.0,611.0,0
11591,-4632,9851,783,-934,-769,465.0,434.0,588.0,618.0,0
11567,-4616,9707,29,-871,-677,461.0,442.0,588.0,603.0,0
11519,-6104,9875,-222,-1220,-916,461.0,438.0,596.0,611.0,0
11651,-5324,9419,59,-924,-509,461.0,417.0,596.0,611.0,0
11875,-5352,9451,263,-994,-245,461.0,409.0,588.0,611.0,0
11819,-5040,9483,545,-855,-185,461.0,421.0,588.0,603.0,0
11887,-5136,9611,339,-800,-100,461.0,438.0,596.0,611.0,0
11843,-5728,9635,482,-581,-275,461.0,434.0,596.0,603.0,0
11815,-6104,10039,263,-356,-193,461.0,421.0,588.0,611.0,0
12235,-5924,10343,233,-547,-264,461.0,398.0,588.0,611.0,0
12067,-6340,10371,542,-694,-460,461.0,442.0,596.0,611.0,0
12019,-6256,9971,1125,-1078,-533,461.0,425.0,596.0,611.0,0
11991,-6632,9255,2411,-1180,-818,456.0,425.0,588.0,611.0,0
12011,-6508,9015,4084,-1092,-957,456.0,421.0,596.0,611.0,0
12203,-6288,9287,5199,-677,-1246,465.0,405.0,581.0,603.0,0
11999,-4524,9643,3154,172,-1404,456.0,430.0,588.0,611.0,0
12183,-4028,8987,-426,2041,-1542,461.0,417.0,588.0,611.0,0
12079,-4432,9307,-867,3111,-1730,465.0,434.0,588.0,611.0,0
11811,-3896,9803,-46,3855,-848,461.0,421.0,588.0,603.0,0
11227,-4324,10659,-31,3975,-91,456.0,413.0,588.0,603.0,0
11423,-3408,11543,-1542,4038,-102,461.0,438.0,596.0,603.0,0
11231,-4756,10931,-2762,4016,-367,461.0,438.0,588.0,611.0,0
11535,-5988,10619,-1769,3332,-424,461.0,417.0,596.0,611.0,0
11503,-5560,10407,756,2192,-301,461.0,430.0,581.0,603.0,0
11807,-4576,10119,714,2258,-479,461.0,442.0,588.0,603.0,0
11915,-4360,10127,432,2527,-451,465.0,425.0,588.0,618.0,0
11795,-4404,10283,169,2967,-160,461.0,409.0,588.0,611.0,0
11463,-4460,10835,154,3125,205,456.0,405.0,588.0,611.0,0
11195,-4680,11115,191,3182,291,461.0,413.0,581.0,611.0,0
10747,-4396,11787,-145,2857,436,461.0,447.0,588.0,618.0,0
10583,-4576,11883,-761,2702,204,461.0,442.0,588.0,611.0,0
10363,-4848,12267,-964,2118,135,461.0,425.0,588.0,611.0,0
10447,-4832,12431,-514,1408,-31,461.0,430.0,588.0,611.0,0
10359,-4556,12235,-43,320,195,461.0,438.0,588.0,603.0,0
10363,-4900,12039,-462,290,112,456.0,430.0,588.0,618.0,0
10459,-5368,11383,-96,241,9,461.0,430.0,588.0,611.0,0
10603,-5068,11667,-177,285,56,461.0,425.0,588.0,611.0,0
10379,-5120,11687,-738,553,-86,461.0,413.0,596.0,611.0,0
10259,-5068,11923,-1119,555,-295,461.0,447.0,588.0,603.0,0
10391,-5760,11807,-901,723,-240,461.0,451.0,588.0,611.0,0
10387,-5684,12047,-92,507,-28,461.0,413.0,581.0,611.0,0
10239,-5168,12175,-177,480,10,456.0,409.0,596.0,603.0,0
9991,-5012,12103,-427,311,7,456.0,417.0,588.0,618.0,0
10043,-5216,11991,-150,113,-82,456.0,438.0,588.0,611.0,0
10155,-5052,11591,-260,-26,22,456.0,421.0,581.0,611.0,0
10151,-5096,11535,-457,-128,153,461.0,413.0,596.0,603.0,0
10143,-5268,11407,-586,-86,133,451.0,413.0,596.0,611.0,0
10135,-5448,11243,-505,-94,53,470.0,425.0,581.0,596.0,0
10091,-5600,11251,-488,39,-61,456.0,430.0,596.0,603.0,0
10179,-5704,11583,-522,92,-135,456.0,434.0,588.0,603.0,0
10007,-5868,11559,-212,-52,-132,461.0,402.0,588.0,611.0,0
10087,-5688,11591,156,-241,-56,465.0,461.0,588.0,603.0,0
10039,-5572,11775,32,-332,0,456.0,421.0,588.0,603.0,0
10139,-5560,11655,-2,-505,3,461.0,413.0,581.0,596.0,0
10247,-5508,11815,-275,-545,5,465.0,425.0,581.0,611.0,0
10199,-5700,11527,-338,-498,33,456.0,425.0,581.0,611.0,0
10203,-5980,11375,-117,-518,48,465.0,442.0,581.0,618.0,0
10155,-5812,11391,-202,-507,160,461.0,421.0,581.0,596.0,0
10023,-6148,11275,-332,-401,67,456.0,425.0,588.0,603.0,0
9923,-5916,11375,-413,-494,-12,461.0,417.0,588.0,603.0,0
9895,-6072,11291,-363,-572,-49,465.0,451.0,596.0,603.0,0
9871,-6068,11355,-326,-838,-135,456.0,434.0,588.0,603.0,0
9959,-5952,11419,-171,-1072,-222,456.0,421.0,588.0,603.0,0
10059,-6140,11647,-372,-1309,-310,461.0,413.0,588.0,611.0,0
9923,-6044,12095,-673,-1691,-412,456.0,417.0,588.0,603.0,0
10215,-6420,12451,-849,-1945,-513,456.0,402.0,581.0,611.0,0
10459,-6580,12363,-1332,-2248,-433,461.0,438.0,588.0,603.0,0
10351,-6500,12527,-2229,-2389,-392,456.0,438.0,596.0,618.0,0
10143,-6632,12291,-2796,-2656,-594,461.0,417.0,588.0,603.0,0
10031,-7084,11815,-2931,-3158,-978,421.0,425.0,588.0,603.0,0
9991,-6720,11323,-2845,-3760,-1286,456.0,451.0,581.0,618.0,0
10435,-6336,10319,-2873,-4058,-1637,456.0,442.0,588.0,603.0,0
10651,-6196,8895,-2870,-4032,-1902,461.0,438.0,588.0,596.0,0
12367,-5720,7063,-1713,-2201,-1550,461.0,421.0,588.0,603.0,0
12351,-4936,7679,-1643,-570,-296,456.0,425.0,581.0,603.0,0
12111,-5040,7583,-2026,816,629,461.0,442.0,581.0,603.0,0
11899,-5952,8951,-1934,1765,1385,461.0,417.0,581.0,596.0,0
11115,-6464,10247,-2496,2499,1541,461.0,417.0,588.0,596.0,0
10475,-6896,10683,-3000,2209,1829,461.0,413.0,581.0,603.0,0
10227,-8020,10995,-2532,1564,1419,456.0,430.0,581.0,596.0,0
10567,-8084,10859,-1540,782,988,461.0,438.0,588.0,603.0,0
10963,-7564,10367,-1410,325,967,456.0,402.0,603.0,603.0,0
11079,-7824,9387,-1175,336,1048,461.0,409.0,588.0,603.0,0
11083,-8168,8735,330,440,977,451.0,438.0,574.0,603.0,0
11091,-7844,8703,319,948,713,461.0,438.0,588.0,611.0,0
11055,-7608,8479,-551,1639,670,461.0,421.0,588.0,611.0,0
10775,-7772,8755,-800,2275,739,461.0,434.0,581.0,603.0,0
10511,-8004,9287,-647,2396,746,456.0,417.0,596.0,603.0,0
10243,-7884,9683,-548,2267,751,451.0,413.0,603.0,603.0,0
10311,-7720,10091,-667,2146,673,461.0,442.0,596.0,603.0,0
10395,-7816,10331,-879,1917,514,456.0,409.0,588.0,603.0,0
10299,-8012,10479,-823,1665,439,456.0,409.0,581.0,596.0,0
10367,-7916,10583,-726,1251,655,461.0,409.0,588.0,603.0,0
10331,-7908,10351,-900,987,776,461.0,425.0,603.0,603.0,0
10107,-7856,10635,-1305,850,714,456.0,442.0,588.0,603.0,0
9855,-8256,10483,-1472,791,713,456.0,405.0,581.0,603.0,0
9967,-8320,10267,-1467,561,814,461.0,413.0,588.0,611.0,0
9935,-8572,9795,-1260,721,834,456.0,405.0,596.0,611.0,0
9595,-8968,9203,-1135,1039,676,456.0,434.0,588.0,603.0,0
9415,-8916,9271,-723,803,492,456.0,447.0,596.0,596.0,0
9363,-8504,9807,-603,746,301,461.0,421.0,596.0,603.0,0
9283,-8564,9731,-576,656,253,456.0,430.0,588.0,611.0,0
9407,-8736,9619,-343,526,73,461.0,442.0,574.0,603.0,0
9467,-8524,9759,-296,323,65,451.0,430.0,588.0,603.0,0
9495,-8676,9447,-176,237,46,461.0,447.0,603.0,603.0,0
9467,-8748,9815,-40,22,-37,461.0,417.0,588.0,603.0,0
9523,-8772,9583,22,-76,2,461.0,405.0,588.0,603.0,0
9563,-8872,9447,165,-53,-37,456.0,421.0,588.0,603.0,0
8923,-9248,9855,200,-129,-506,465.0,442.0,596.0,596.0,0
8271,-9840,10207,149,-922,-1369,442.0,413.0,588.0,603.0,0
7847,-10000,10703,-14,-1904,-2640,456.0,409.0,588.0,603.0,0
7499,-10292,10455,633,-3452,-4238,456.0,451.0,596.0,603.0,0
8151,-9868,9707,1573,-5634,-5821,451.0,438.0,596.0,603.0,0
8819,-9192,9559,2037,-7580,-7215,456.0,451.0,596.0,611.0,0
9671,-9012,8975,2647,-8480,-8585,456.0,417.0,581.0,596.0,0
10855,-7616,8171,3258,-8950,-9154,456.0,405.0,581.0,596.0,0
11435,-6192,7691,3159,-8878,-8754,456.0,413.0,588.0,611.0,0
12311,-6476,7119,3287,-8536,-8423,456.0,430.0,581.0,603.0,0
13195,-5528,7735,4089,-8022,-7579,518.0,442.0,581.0,603.0,0
13899,-5268,7959,4078,-6933,-6408,461.0,413.0,581.0,611.0,0
14403,-4720,7583,4624,-5597,-5364,461.0,398.0,588.0,611.0,0
14931,-4308,7627,4612,-4287,-4076,456.0,456.0,588.0,611.0,0
15027,-4508,7403,3802,-2623,-2931,461.0,430.0,588.0,603.0,0
14547,-4812,8551,1266,428,-442,451.0,413.0,588.0,611.0,0
14323,-5460,8587,860,1429,-81,456.0,421.0,588.0,618.0,0
13931,-6748,8459,63,2180,-133,461.0,430.0,588.0,618.0,0
13367,-7300,8723,-400,2576,-604,456.0,434.0,588.0,634.0,0
12659,-7816,8803,-205,2768,-1351,461.0,421.0,588.0,642.0,0
11911,-8464,9363,1155,1729,-2808,456.0,417.0,596.0,634.0,0
11483,-7464,9267,2898,861,-3876,456.0,413.0,588.0,642.0,0
11659,-5944,10103,3720,528,-4474,451.0,434.0,588.0,634.0,0
12695,-5100,10395,2415,-651,-4461,461.0,434.0,603.0,642.0,0
13615,-5076,9319,1428,-958,-4692,451.0,402.0,596.0,642.0,0
13295,-2616,8451,4560,-2200,-2994,451.0,417.0,588.0,651.0,0
13683,-2412,7667,5801,-2620,-2445,451.0,425.0,603.0,634.0,0
14327,-1724,6899,6675,-3184,-1603,456.0,434.0,596.0,642.0,0
14279,-104,7395,3948,-2281,-874,451.0,430.0,588.0,651.0,0
14383,220,7291,615,-2192,221,456.0,413.0,603.0,642.0,0
14499,-1480,7295,-298,-1460,1049,451.0,417.0,596.0,642.0,0
14455,-2528,7227,229,-845,3558,461.0,417.0,596.0,651.0,0
14547,-3776,7183,949,-461,3451,451.0,417.0,596.0,634.0,0
13727,-3256,7971,1321,475,3123,470.0,409.0,596.0,626.0,0
12895,-3420,8675,609,-25,3191,451.0,413.0,596.0,642.0,0
12743,-5052,9655,591,-1096,2332,456.0,434.0,588.0,634.0,0
12867,-5888,9651,962,-1538,2019,461.0,438.0,588.0,634.0,0
12923,-5904,9343,2512,-1917,1750,456.0,425.0,596.0,618.0,0
13199,-4980,9399,3464,-2199,1531,451.0,417.0,581.0,626.0,0
13703,-3848,8759,3918,-2275,1586,456.0,413.0,588.0,642.0,0
13947,-3344,7951,3578,-2030,1976,456.0,421.0,588.0,634.0,0
13971,-3484,7603,4425,-1773,2591,451.0,430.0,596.0,634.0,0
14283,-3452,7455,5767,-1386,3286,451.0,409.0,588.0,618.0,0
14471,-1516,8275,4639,-584,4360,451.0,417.0,588.0,626.0,0
13875,-996,8547,337,-443,5432,451.0,421.0,596.0,626.0,0
13207,-3176,8583,-1664,-404,5606,451.0,434.0,596.0,626.0,0
12819,-5772,8403,-1153,-340,5340,456.0,425.0,588.0,634.0,0
12695,-6452,8059,671,-353,5435,451.0,456.0,581.0,634.0,0
12375,-6068,7571,1669,207,5442,451.0,409.0,588.0,634.0,0
12343,-5600,7579,1511,1144,5112,456.0,421.0,588.0,626.0,0
12355,-6404,7567,-1838,2235,4404,451.0,438.0,596.0,642.0,0
12463,-7332,7271,-2397,3063,3984,451.0,402.0,596.0,626.0,0
12407,-8108,7155,-2136,4239,3633,451.0,421.0,588.0,626.0,0
11883,-9072,7671,-1076,4845,2870,451.0,409.0,596.0,634.0,0
11507,-9080,8387,-379,5003,1751,451.0,425.0,581.0,626.0,0
10791,-9076,9175,-481,4388,265,451.0,425.0,588.0,618.0,0
10655,-8744,9627,-560,2765,-1508,447.0,405.0,596.0,626.0,0
11151,-8176,9575,-257,1116,-2840,470.0,417.0,588.0,626.0,0
11603,-7076,9407,882,-159,-3512,451.0,413.0,588.0,626.0,0
11947,-5952,9423,2018,-895,-3307,451.0,421.0,588.0,626.0,0
12439,-4644,9527,2600,-1443,-2455,451.0,438.0,596.0,626.0,0
12947,-3708,9355,2299,-1539,-1530,461.0,430.0,581.0,626.0,0
12935,-3332,9311,1498,-1124,-504,456.0,409.0,581.0,618.0,0
12631,-3948,9123,760,-634,375,456.0,398.0,588.0,626.0,0
12263,-5200,9263,735,33,814,451.0,434.0,588.0,642.0,0
12143,-5996,9383,568,641,978,451.0,447.0,588.0,634.0,0
11843,-6504,9839,-46,1029,684,451.0,387.0,581.0,634.0,0
11891,-7132,9903,-906,1185,40,456.0,405.0,588.0,634.0,0
11831,-7808,9939,-1556,1448,-744,451.0,425.0,588.0,642.0,0
11831,-8356,9895,-2062,1717,-1896,456.0,438.0,588.0,642.0,0
11603,-8652,10487,-1307,1950,-3194,456.0,438.0,588.0,634.0,0
11551,-8420,11167,477,1910,-3787,451.0,434.0,588.0,634.0,0
11331,-7024,11915,1771,1617,-3893,451.0,413.0,581.0,634.0,0
11307,-4424,12251,760,834,-3581,451.0,413.0,588.0,634.0,0
11335,-3708,11867,-1430,-51,-3290,475.0,425.0,581.0,634.0,0
11739,-4696,11395,-2632,-824,-3377,451.0,425.0,588.0,634.0,0
12679,-5504,9639,-2841,245,-3247,456.0,421.0,588.0,618.0,0
12519,-5076,9291,-2956,945,-2781,456.0,417.0,588.0,618.0,0
12127,-5296,9207,-3505,1210,-2704,451.0,425.0,588.0,634.0,0
12095,-5528,9355,-2998,874,-2406,451.0,434.0,588.0,642.0,0
11963,-5876,9263,-2275,407,-2338,451.0,413.0,581.0,626.0,0
11631,-5452,8951,-992,-186,-2153,451.0,405.0,596.0,642.0,0
11243,-5008,9803,-586,-926,-1847,451.0,417.0,588.0,642.0,0
11375,-4252,9831,-1276,-2092,-1562,451.0,430.0,588.0,634.0,0
11687,-4376,9819,-2251,-2975,-1503,451.0,434.0,588.0,634.0,0
11947,-5400,9347,-2134,-3704,-1344,456.0,438.0,603.0,618.0,0
12591,-6004,8375,-628,-3839,-734,451.0,421.0,588.0,618.0,0
13043,-6232,8159,-85,-3701,-659,451.0,434.0,588.0,626.0,0
13375,-5908,8199,73,-3516,-692,451.0,434.0,581.0,626.0,0
13275,-6196,7923,44,-3399,-652,451.0,438.0,581.0,634.0,0
13347,-6288,7751,-68,-3174,-521,451.0,405.0,588.0,626.0,0
13155,-6412,7691,125,-2994,-161,456.0,413.0,588.0,634.0,0
13063,-6480,7643,783,-2785,-348,451.0,438.0,588.0,618.0,0
12979,-6016,7699,554,-2577,-532,451.0,421.0,568.0,634.0,0
12803,-6060,7743,526,-2643,-619,491.0,421.0,588.0,634.0,0
12795,-6160,7603,790,-2576,-758,456.0,413.0,581.0,618.0,0
12791,-5688,7399,1601,-2293,-670,451.0,394.0,574.0,603.0,0
12527,-4916,7119,1734,-2060,-474,456.0,438.0,588.0,611.0,0
12867,-4628,6623,1660,-1687,-513,456.0,417.0,581.0,603.0,0
13135,-4548,7239,835,-1442,-578,451.0,421.0,581.0,603.0,0
13151,-5188,6715,938,-1179,-498,451.0,405.0,581.0,611.0,0
13643,-5784,7583,1314,-790,-880,451.0,430.0,588.0,603.0,0
13855,-5884,7659,1268,-615,-1272,451.0,438.0,588.0,611.0,0
13815,-6060,7759,1728,-803,-1698,451.0,430.0,568.0,611.0,0
13923,-5568,7927,1594,-898,-1784,447.0,417.0,588.0,611.0,0
14071,-5340,7971,1622,-1098,-1651,451.0,434.0,574.0,611.0,0
14283,-4856,7831,1075,-1013,-1614,451.0,421.0,588.0,611.0,0
14403,-4864,7539,1285,-1232,-1427,451.0,425.0,588.0,603.0,0
14751,-4520,7667,1463,-953,-1205,456.0,421.0,581.0,603.0,0
15067,-4092,7475,1309,-597,-565,451.0,421.0,588.0,611.0,0
14939,-3868,7511,334,-18,-27,451.0,425.0,581.0,611.0,0
14251,-4936,7483,-343,761,566,456.0,430.0,581.0,618.0,0
13883,-4912,7799,-38,696,674,451.0,398.0,574.0,618.0,0
13463,-4840,7763,-318,428,656,451.0,413.0,588.0,618.0,0
13263,-4748,7567,-487,128,586,451.0,402.0,581.0,626.0,0
13447,-4648,7411,-509,-169,555,451.0,421.0,588.0,611.0,0
13531,-4504,6919,-424,-230,650,447.0,434.0,581.0,618.0,0
13583,-4824,6791,-204,-229,653,451.0,405.0,588.0,618.0,0
13771,-4904,6919,-65,-71,534,451.0,405.0,588.0,618.0,0
13899,-4892,6855,-138,22,419,451.0,383.0,596.0,626.0,0
13855,-5264,6919,-165,57,336,456.0,421.0,588.0,611.0,0
14043,-5548,7255,118,43,157,451.0,430.0,581.0,618.0,0
14115,-5736,7423,312,-19,-31,447.0,425.0,596.0,618.0,0
14075,-5900,7759,474,-258,-279,451.0,409.0,581.0,611.0,0
14275,-5836,7843,727,-312,-641,456.0,402.0,581.0,603.0,0
13971,-5548,7855,1032,-268,-721,451.0,434.0,588.0,611.0,0
13955,-5188,7555,516,227,238,405.0,421.0,588.0,603.0,0
13899,-5216,7459,277,618,380,447.0,417.0,581.0,611.0,0
14099,-5300,7363,180,1073,183,451.0,405.0,581.0,611.0,0
13987,-5024,7423,-256,1934,183,451.0,430.0,581.0,603.0,0
13775,-5284,7591,-328,1736,216,451.0,425.0,588.0,603.0,0
13723,-5160,7631,-145,1679,402,456.0,442.0,581.0,611.0,0
13575,-5100,7571,-105,1578,753,451.0,409.0,588.0,611.0,0
13407,-5128,7539,-395,1614,823,451.0,405.0,588.0,618.0,0
13343,-5232,7499,-624,1363,908,456.0,438.0,588.0,611.0,0
13079,-5496,7359,-503,1096,1010,451.0,430.0,581.0,634.0,0
12963,-5336,7335,720,424,601,447.0,417.0,581.0,618.0,0
12879,-5072,7443,655,194,564,465.0,430.0,581.0,618.0,0
13051,-5204,7235,362,183,432,447.0,425.0,588.0,611.0,0
13199,-5548,7519,132,133,155,451.0,417.0,588.0,618.0,0
13371,-5932,7295,484,151,-104,451.0,425.0,581.0,618.0,0
13515,-6004,7551,809,423,-162,451.0,417.0,588.0,611.0,0
13367,-5880,7451,1100,476,-163,451.0,398.0,581.0,603.0,0
13611,-5912,7871,1125,640,-491,451.0,434.0,581.0,611.0,0
13871,-5788,8107,1262,484,-547,451.0,434.0,588.0,618.0,0
13879,-5732,8367,1248,1066,-505,451.0,434.0,581.0,626.0,0
13635,-5756,8763,1197,662,-289,451.0,402.0,588.0,611.0,0
13731,-5656,8815,1118,534,-127,451.0,391.0,588.0,596.0,0
13691,-5600,9031,1025,411,139,451.0,417.0,588.0,618.0,0
13427,-5676,8743,1006,383,434,442.0,425.0,588.0,618.0,0
13199,-5516,8751,823,231,685,451.0,409.0,574.0,611.0,0
12723,-5636,8823,491,-82,862,451.0,451.0,588.0,618.0,0
12507,-5720,8895,499,-256,736,451.0,421.0,588.0,618.0,0
12391,-5712,8783,713,-436,687,451.0,409.0,588.0,611.0,0
12323,-5684,8799,811,-585,800,491.0,421.0,588.0,618.0,0
12251,-5596,8859,422,-607,843,451.0,417.0,588.0,611.0,0
12167,-5824,8443,22,-720,799,451.0,391.0,581.0,611.0,0
12311,-6072,8303,68,-648,672,451.0,430.0,581.0,611.0,0
12143,-5736,8203,82,-384,570,451.0,425.0,588.0,603.0,0
12183,-5672,7723,45,-286,491,451.0,402.0,588.0,611.0,0
12259,-5784,7691,176,-106,258,451.0,409.0,581.0,603.0,0
12759,-5672,7559,361,785,130,451.0,442.0,588.0,611.0,0
13163,-5916,7627,461,925,-109,451.0,438.0,581.0,611.0,0
13467,-6136,7883,603,1030,-269,451.0,413.0,588.0,611.0,0
13423,-6392,8335,803,943,-314,451.0,417.0,581.0,618.0,0
13435,-6348,8863,1269,620,-440,451.0,417.0,581.0,611.0,0
13427,-6072,9075,1277,277,-463,451.0,442.0,588.0,611.0,0
13291,-6028,9239,1406,-100,-418,451.0,425.0,581.0,611.0,0
13291,-5700,9355,1471,-451,-234,451.0,413.0,581.0,611.0,0
13015,-5432,9371,1219,-673,79,456.0,417.0,588.0,611.0,0
12951,-5248,9159,808,-643,346,451.0,398.0,581.0,596.0,0
12647,-5420,8991,683,-527,534,451.0,417.0,581.0,611.0,0
12455,-5500,8523,739,-294,494,451.0,417.0,588.0,603.0,0
12515,-5428,8595,441,-103,414,451.0,438.0,588.0,596.0,0
12571,-5684,8639,21,263,411,451.0,421.0,568.0,603.0,0
12603,-6224,8579,-43,430,231,438.0,456.0,596.0,611.0,0
12587,-6304,8599,80,508,90,451.0,409.0,588.0,603.0,0
12875,-6276,8731,-16,429,-14,430.0,438.0,588.0,603.0,0
12587,-6240,8811,-242,330,-25,451.0,398.0,581.0,611.0,0
12307,-6096,8699,-162,28,70,524.0,417.0,588.0,611.0,0
12163,-5960,8531,260,-330,0,451.0,438.0,581.0,603.0,0
12315,-5272,8539,495,-690,28,447.0,413.0,581.0,611.0,0
12199,-4960,8559,146,-766,256,451.0,434.0,581.0,603.0,0
12063,-5248,8451,55,-587,258,456.0,409.0,581.0,603.0,0
12275,-5556,8191,-25,-335,85,447.0,398.0,574.0,596.0,0
12715,-6072,8083,-217,141,-39,451.0,430.0,581.0,603.0,0
13083,-6772,7643,-281,746,-199,442.0,430.0,588.0,603.0,0
13267,-6960,7583,-339,1299,-349,451.0,405.0,588.0,603.0,0
13483,-7296,7779,-134,1698,-445,451.0,409.0,588.0,603.0,0
13227,-7412,8131,15,1662,-630,456.0,442.0,588.0,603.0,0
12783,-7072,8895,361,1355,-1085,451.0,421.0,588.0,603.0,0
12323,-6492,9351,939,295,-1536,451.0,421.0,588.0,611.0,0
11763,-6276,9911,1612,-433,-1906,451.0,425.0,588.0,603.0,0
11787,-5464,9927,1224,-1162,-2150,451.0,417.0,581.0,603.0,0
11679,-5288,9819,522,-1955,-2157,451.0,409.0,574.0,603.0,0
11699,-6040,9495,354,-2778,-2589,451.0,430.0,588.0,603.0,0
12455,-6620,9235,1257,-3336,-2936,438.0,425.0,588.0,603.0,0
13035,-6140,8663,1124,-2861,-3013,451.0,417.0,581.0,611.0,0
13579,-5624,8139,642,-1982,-2322,451.0,405.0,581.0,603.0,0
13971,-5488,7815,-79,-605,-1770,461.0,434.0,596.0,611.0,0
14179,-5244,7679,-377,622,-1049,417.0,430.0,588.0,603.0,0
13971,-5248,7847,-486,2039,-302,451.0,442.0,574.0,611.0,0
12527,-4756,9227,-1368,3849,714,451.0,421.0,581.0,596.0,0
12047,-5068,9879,-1939,3953,785,456.0,447.0,588.0,603.0,0
11463,-5548,9919,-2123,3436,723,447.0,430.0,581.0,596.0,0
11171,-5576,9795,-2196,2943,542,451.0,421.0,568.0,588.0,0
11447,-5612,9475,-2228,2491,254,451.0,417.0,588.0,603.0,0
12035,-5880,8863,-2142,2294,-11,447.0,413.0,581.0,596.0,0
12439,-5952,8487,-2172,2234,-87,451.0,438.0,581.0,596.0,0
12755,-6044,8095,-2165,2224,-206,451.0,430.0,588.0,596.0,0
12875,-6208,8491,-1683,1905,-380,456.0,421.0,581.0,603.0,0
12975,-5912,8451,-1102,1781,-278,451.0,425.0,588.0,603.0,0
12911,-5828,8775,-1095,1168,496,447.0,402.0,588.0,603.0,0
12923,-5988,8459,-788,776,752,451.0,434.0,588.0,596.0,0
12499,-5980,8535,-298,232,905,447.0,442.0,574.0,596.0,0
12447,-6024,8395,28,-154,923,451.0,421.0,581.0,596.0,0
12511,-6200,8563,281,-318,976,451.0,405.0,588.0,596.0,0
12439,-6264,8519,544,-656,1007,456.0,438.0,581.0,603.0,0
12083,-6380,8823,995,-833,990,451.0,425.0,588.0,603.0,0
12275,-6320,9043,1258,-854,839,447.0,402.0,596.0,611.0,0
12251,-6140,9051,1257,-739,850,447.0,421.0,581.0,596.0,0
12059,-6216,9351,1193,-643,846,451.0,409.0,581.0,603.0,0
11887,-6380,9507,749,-661,764,451.0,409.0,581.0,596.0,0
11903,-6500,9651,790,-662,719,451.0,425.0,588.0,596.0,0
12031,-6472,9343,916,-561,602,451.0,438.0,588.0,603.0,0
11915,-6140,9511,662,-683,599,451.0,402.0,596.0,596.0,0
11967,-6264,9547,405,-561,520,451.0,398.0,596.0,596.0,0
11811,-6712,8907,-32,-335,-318,451.0,430.0,596.0,596.0,0
11975,-6832,8875,-266,214,-447,456.0,409.0,588.0,596.0,0
11839,-7088,9347,154,207,-594,451.0,421.0,596.0,596.0,0
11747,-6944,9435,986,127,-914,451.0,398.0,596.0,596.0,0
11843,-6336,9439,1368,154,-831,456.0,417.0,596.0,588.0,0
12147,-5944,9779,1323,47,-690,451.0,442.0,596.0,603.0,0
12167,-5776,9939,950,149,-379,451.0,421.0,588.0,588.0,0
12091,-5916,10023,761,19,-198,447.0,417.0,588.0,596.0,0
11839,-6068,9971,934,-230,-85,451.0,417.0,596.0,588.0,0
11727,-6064,9571,871,-278,306,451.0,456.0,588.0,596.0,0
11927,-6236,9079,591,-293,677,456.0,430.0,588.0,581.0,0
11971,-6464,8915,702,-382,717,447.0,425.0,588.0,596.0,0
11899,-6756,9003,664,-396,746,447.0,417.0,588.0,596.0,0
11859,-6744,8983,643,-593,653,451.0,421.0,588.0,596.0,0
11859,-6796,8771,767,-720,571,451.0,434.0,588.0,596.0,0
11875,-6688,8927,1178,-859,461,451.0,447.0,588.0,596.0,0
12051,-6424,8855,1345,-909,568,447.0,430.0,588.0,603.0,0
12011,-6376,8759,1706,-1076,590,451.0,409.0,588.0,596.0,0
11723,-6332,8675,1862,-1163,445,447.0,391.0,574.0,588.0,0
11723,-6024,8551,2251,-1338,621,451.0,421.0,588.0,596.0,0
11923,-6000,8919,2096,-1399,897,447.0,402.0,588.0,588.0,0
11687,-6064,9239,2223,-1705,956,451.0,417.0,588.0,588.0,0
11515,-6420,9567,2405,-2111,894,451.0,409.0,581.0,588.0,0
11631,-6360,9671,2996,-2508,659,438.0,402.0,588.0,596.0,0
11907,-5960,9579,3048,-2412,423,451.0,434.0,588.0,588.0,0
12595,-6040,9311,2426,-1516,370,447.0,409.0,588.0,596.0,0
12879,-6016,8939,2281,-762,399,456.0,413.0,588.0,596.0,0
13083,-5872,8811,2018,49,655,456.0,405.0,588.0,596.0,0
13095,-5852,9059,1602,782,717,451.0,434.0,588.0,596.0,0
12823,-5944,9303,1399,1191,649,447.0,417.0,581.0,588.0,0
12627,-6108,9799,1379,1260,635,451.0,417.0,588.0,596.0,0
12163,-6092,10527,1484,884,534,451.0,409.0,596.0,596.0,0
11771,-5928,10795,1272,534,546,447.0,434.0,581.0,596.0,0
11599,-6060,10759,719,-22,535,451.0,434.0,581.0,596.0,0
11435,-6260,10891,448,-496,381,447.0,409.0,581.0,596.0,0
11411,-6172,10415,156,-1017,198,461.0,413.0,588.0,596.0,0
11447,-6140,10323,-485,-927,147,456.0,417.0,588.0,588.0,0
11347,-6372,9759,-1240,-557,193,451.0,417.0,581.0,588.0,0
11371,-6836,9331,-1332,-205,26,447.0,405.0,588.0,588.0,0
11651,-6904,9323,-1370,5,-306,451.0,425.0,588.0,596.0,0
11699,-6884,9055,-1038,251,-447,447.0,421.0,588.0,603.0,0
11647,-6936,8907,-623,301,-646,447.0,409.0,588.0,581.0,0
11839,-6708,8871,-326,279,-859,456.0,425.0,596.0,596.0,0
12103,-6388,9231,-405,440,-935,447.0,417.0,588.0,588.0,0
12039,-6340,9219,-301,465,-828,451.0,402.0,588.0,596.0,0
12015,-6216,8715,-283,453,-495,451.0,421.0,596.0,581.0,0
12239,-6612,8643,-140,429,-266,456.0,421.0,588.0,588.0,0
12419,-6540,8895,178,479,-206,451.0,434.0,596.0,596.0,0
12243,-6368,8907,97,525,-163,456.0,442.0,596.0,581.0,0
12039,-6324,9055,153,468,-34,447.0,402.0,596.0,596.0,0
12923,-5024,8943,343,371,-1,160.0,145.0,192.0,181.0,1
12847,-5188,9051,226,102,138,159.0,144.0,191.0,183.0,1
12587,-5332,8691,327,-135,115,160.0,145.0,191.0,181.0,1
12455,-5288,8679,262,-282,135,160.0,145.0,191.0,183.0,1
12631,-5420,8375,129,-352,85,162.0,146.0,192.0,181.0,1
12511,-5600,8519,324,-408,-66,161.0,145.0,191.0,182.0,1
12463,-5672,8495,592,-329,-316,161.0,143.0,189.0,181.0,1
12503,-5500,8511,569,-314,-437,160.0,145.0,191.0,181.0,1
12923,-5400,8319,492,-235,-465,161.0,144.0,191.0,182.0,1
13059,-5428,8311,367,-81,-486,163.0,145.0,192.0,182.0,1
12819,-5520,8243,666,-73,-398,161.0,145.0,192.0,182.0,1
12751,-5616,8199,1163,133,-593,163.0,143.0,189.0,181.0,1
12983,-5048,8495,1140,213,-743,161.0,145.0,192.0,182.0,1
13119,-4940,8939,716,305,-589,161.0,144.0,191.0,182.0,1
12675,-5252,9007,662,316,-327,162.0,145.0,192.0,182.0,1
12611,-5384,9291,634,89,-279,160.0,145.0,191.0,183.0,1
12843,-5532,9251,768,-241,-207,162.0,143.0,191.0,181.0,1
12947,-5584,9091,770,-265,-334,161.0,145.0,191.0,182.0,1
13051,-5568,9035,645,-191,-460,161.0,145.0,191.0,181.0,1
13207,-5424,8831,544,-110,-375,161.0,146.0,191.0,182.0,1
13031,-5200,8995,488,-83,-203,161.0,145.0,193.0,180.0,1
13091,-4976,8827,486,-15,-3,161.0,145.0,191.0,182.0,1
12903,-5004,8931,365,-14,163,160.0,145.0,191.0,182.0,1
12739,-5028,8763,467,-216,327,163.0,145.0,192.0,183.0,1
12563,-4964,8855,512,-215,379,161.0,146.0,191.0,182.0,1
12451,-5104,8667,605,-480,390,160.0,146.0,192.0,183.0,1
12335,-4984,8611,580,-253,222,162.0,145.0,191.0,182.0,1
12391,-5044,8795,483,-379,150,161.0,145.0,191.0,182.0,1
12531,-4984,8747,520,-130,-11,161.0,145.0,191.0,183.0,1
12383,-5064,8851,469,65,-194,162.0,145.0,192.0,181.0,1
12783,-5240,8831,337,526,-541,161.0,145.0,191.0,183.0,1
13019,-5364,8635,316,833,-682,162.0,145.0,191.0,180.0,1
13219,-5492,8867,306,1019,-739,162.0,145.0,192.0,181.0,1
13139,-5428,9247,299,750,-711,162.0,146.0,192.0,182.0,1
12951,-5284,9259,285,477,-652,158.0,145.0,192.0,181.0,1
12811,-5256,9343,253,-72,-507,153.0,146.0,191.0,181.0,1
12523,-5288,9299,251,-591,-371,160.0,145.0,192.0,181.0,1
12551,-5188,9219,254,-923,-302,161.0,146.0,192.0,182.0,1
12575,-5196,9303,-68,-1107,-217,161.0,146.0,191.0,182.0,1
12931,-5200,9375,-282,-1142,-72,161.0,147.0,191.0,183.0,1
13119,-5564,9271,-261,-1269,65,161.0,145.0,191.0,182.0,1
13227,-5448,9091,-136,-937,72,161.0,145.0,189.0,183.0,1
13087,-5228,9119,-347,-909,355,162.0,145.0,192.0,183.0,1
13143,-5344,9571,-715,-868,516,161.0,145.0,192.0,182.0,1
12979,-5380,9327,-1000,-877,550,160.0,146.0,189.0,182.0,1
13019,-5696,8943,-1060,-935,674,162.0,145.0,192.0,182.0,1
12855,-6052,8623,-807,-891,642,161.0,145.0,189.0,181.0,1
12799,-5872,8403,-512,-916,506,161.0,145.0,192.0,183.0,1
12695,-5676,8755,-478,-1144,422,161.0,146.0,192.0,181.0,1
12563,-5436,8791,-533,-1091,211,169.0,144.0,191.0,183.0,1
12671,-5384,8491,-564,-1474,250,161.0,144.0,191.0,182.0,1
12643,-5392,8407,-219,-1427,146,162.0,145.0,193.0,180.0,1
12527,-5360,8475,77,-1562,-35,161.0,146.0,192.0,182.0,1
13063,-5356,9031,19,-1897,-285,162.0,146.0,192.0,182.0,1
13619,-5172,8771,-297,-1963,-374,160.0,148.0,191.0,184.0,1
13903,-5420,8119,-186,-2574,-201,161.0,145.0,191.0,180.0,1
14091,-5208,7587,-17,-2560,108,162.0,146.0,192.0,182.0,1
13951,-5260,7283,-303,-2160,460,162.0,146.0,192.0,182.0,1
13983,-5732,7419,-487,-1583,578,163.0,145.0,191.0,183.0,1
13531,-6520,7251,-509,-1077,545,161.0,145.0,192.0,182.0,1
13119,-7100,7083,-670,-704,320,162.0,146.0,192.0,183.0,1
13191,-7404,7363,-1082,-389,-236,162.0,146.0,192.0,182.0,1
13739,-7276,7679,-833,120,-912,162.0,146.0,192.0,182.0,1
13163,-6864,7971,-558,377,-1382,160.0,145.0,192.0,182.0,1
12759,-6916,7963,-542,-3,-1633,161.0,145.0,192.0,182.0,1
12943,-6472,8119,-615,-261,-1943,162.0,146.0,191.0,181.0,1
13187,-6136,8275,-1086,-624,-2062,161.0,146.0,191.0,183.0,1
13123,-5576,8627,-832,-757,-1838,162.0,146.0,192.0,181.0,1
12887,-4972,8435,-406,-1064,-1653,160.0,147.0,191.0,182.0,1
13567,-4588,8443,-782,-1855,-1201,161.0,145.0,191.0,181.0,1
14171,-4568,8155,-1096,-1660,-945,160.0,144.0,192.0,181.0,1
13887,-4796,7895,-1214,-1655,-630,162.0,145.0,192.0,182.0,1
13471,-5464,7195,-686,-1609,-276,161.0,145.0,191.0,182.0,1
13623,-5476,6831,-828,-1564,-244,162.0,146.0,191.0,183.0,1
13603,-5876,6651,-1059,-1364,-208,163.0,145.0,194.0,184.0,1
13631,-6284,6431,-883,-1137,-221,162.0,146.0,192.0,183.0,1
13631,-6520,6175,-544,-1088,-486,162.0,146.0,192.0,182.0,1
13827,-6572,6059,-250,-751,-731,163.0,146.0,192.0,183.0,1
13491,-6364,6231,298,-474,-626,161.0,146.0,192.0,182.0,1
13055,-6056,6383,849,-579,-540,163.0,145.0,191.0,182.0,1
13267,-5276,6347,1058,-875,-589,161.0,147.0,192.0,183.0,1
13671,-5108,6303,633,-858,-511,162.0,146.0,192.0,182.0,1
13879,-5936,6639,322,-1064,-557,161.0,145.0,192.0,182.0,1
13747,-5920,6899,916,-986,-413,161.0,147.0,193.0,184.0,1
13819,-5572,6943,1416,-1205,-268,161.0,147.0,191.0,184.0,1
14027,-5348,7063,1407,-1749,-51,162.0,146.0,192.0,182.0,1
14227,-5356,6763,1440,-1830,135,163.0,146.0,192.0,183.0,1
14391,-5632,6467,1614,-1691,403,162.0,147.0,192.0,182.0,1
14691,-5736,6471,1659,-1405,560,162.0,145.0,193.0,183.0,1
14847,-5712,6187,1007,-751,674,162.0,146.0,192.0,183.0,1
14559,-6224,6119,492,64,513,162.0,146.0,193.0,182.0,1
14555,-6428,5915,539,395,126,166.0,145.0,192.0,183.0,1
14399,-6512,6011,501,870,-297,161.0,146.0,192.0,183.0,1
14211,-6568,6139,651,1288,-584,164.0,145.0,192.0,182.0,1
13955,-6704,6219,707,1797,-1020,162.0,146.0,192.0,182.0,1
13807,-6372,6599,872,1941,-1292,162.0,147.0,192.0,183.0,1
13727,-6152,6767,775,1986,-1388,162.0,145.0,192.0,183.0,1
13739,-5828,6783,827,1984,-1369,162.0,146.0,191.0,182.0,1
13779,-5336,6707,440,1849,-1291,162.0,145.0,193.0,184.0,1
14083,-5240,6279,206,1790,-1145,161.0,146.0,192.0,183.0,1
14247,-5420,6543,407,1885,-1247,162.0,146.0,191.0,183.0,1
14303,-4900,6363,756,1654,-1194,163.0,147.0,191.0,182.0,1
14691,-5044,6427,898,1018,-1238,162.0,146.0,192.0,182.0,1
14887,-4952,6471,896,830,-1542,161.0,146.0,191.0,182.0,1
14279,-5000,6871,1334,677,-1590,162.0,146.0,192.0,182.0,1
13999,-4760,7355,1447,472,-1784,163.0,146.0,191.0,183.0,1
13719,-4604,7719,1373,530,-2019,162.0,145.0,192.0,182.0,1
13343,-4304,7911,1196,215,-2098,162.0,146.0,191.0,181.0,1
13335,-4544,7855,1262,137,-2020,162.0,145.0,192.0,183.0,1
13267,-4344,8551,1096,278,-2073,163.0,145.0,191.0,181.0,1
12879,-3768,8823,503,33,-1994,162.0,146.0,192.0,182.0,1
13183,-3668,8351,-194,115,-1889,162.0,146.0,192.0,183.0,1
13519,-4260,8083,-865,13,-1722,161.0,144.0,193.0,184.0,1
13627,-5148,7475,-947,744,-1677,163.0,146.0,192.0,182.0,1
12939,-5004,8875,-856,1106,-1840,161.0,146.0,194.0,182.0,1
13139,-4596,8459,-764,1198,-1900,163.0,146.0,192.0,182.0,1
13363,-4396,8415,-1047,1207,-1707,162.0,145.0,193.0,181.0,1
13283,-5016,8107,-1027,1399,-992,163.0,146.0,193.0,183.0,1
13171,-4860,8211,-315,1175,-971,163.0,147.0,192.0,181.0,1
13363,-4020,8211,80,765,-901,164.0,146.0,193.0,182.0,1
13455,-3952,7483,71,950,-865,164.0,146.0,193.0,182.0,1
13375,-4216,7859,225,618,-574,161.0,146.0,191.0,180.0,1
13679,-4144,7835,-15,507,-161,161.0,146.0,193.0,182.0,1
13663,-4132,7999,596,32,64,164.0,147.0,194.0,181.0,1
14147,-4928,8203,2617,-105,331,164.0,145.0,193.0,181.0,1
14011,-5128,8299,4487,12,-43,163.0,146.0,193.0,181.0,1
13495,-4440,8731,4506,-682,-265,164.0,145.0,193.0,181.0,1
13415,-3312,8907,2612,-1449,-413,165.0,146.0,194.0,181.0,1
13647,-1608,9235,-1981,-1608,-576,164.0,147.0,194.0,179.0,1
13827,-3292,8587,-2852,-3146,-998,163.0,146.0,193.0,180.0,1
13527,-4480,8455,-3538,-242,-2089,164.0,146.0,193.0,181.0,1
13435,-3828,7779,-4512,-2088,-1546,163.0,145.0,194.0,179.0,1
13791,-5312,7099,-3371,-1478,-611,163.0,146.0,194.0,180.0,1
14431,-7140,7299,-289,-392,-439,164.0,146.0,194.0,179.0,1
13783,-5108,7311,2568,688,-1340,164.0,146.0,193.0,180.0,1
13695,-4100,7927,1531,-1207,-600,164.0,146.0,193.0,181.0,1
14047,-4152,7087,501,-1291,-648,163.0,147.0,196.0,180.0,1
13979,-4720,7219,686,-260,-524,164.0,146.0,193.0,182.0,1
13147,-4024,7791,507,-140,-506,164.0,147.0,196.0,180.0,1
13851,-3176,8131,-284,-755,-608,164.0,146.0,194.0,181.0,1
15271,-3080,7683,-1435,-195,-702,163.0,146.0,193.0,181.0,1
14167,-5736,6983,-1912,377,-1199,163.0,145.0,194.0,183.0,1
17515,-6896,7503,7240,2191,-14249,164.0,147.0,194.0,182.0,1
15415,420,8763,8147,1668,-6590,164.0,146.0,192.0,181.0,1
13775,-3324,8155,5812,2499,-4593,163.0,147.0,194.0,181.0,1
13055,-1952,7663,2339,2656,-1555,164.0,146.0,194.0,181.0,1
14643,-1652,7995,2590,-1815,1726,162.0,146.0,194.0,183.0,1
13423,-1444,8067,306,-3088,2336,164.0,146.0,196.0,182.0,1
12467,-1904,7699,-2463,-5504,3593,164.0,147.0,196.0,184.0,1
14663,-1752,7459,-5591,-5473,3835,164.0,147.0,194.0,182.0,1
15423,-5316,6815,-4618,-2353,2116,164.0,148.0,196.0,180.0,1
14923,-5440,6315,-3032,-374,841,171.0,147.0,194.0,181.0,1
13947,-4332,6931,-1652,690,571,163.0,149.0,196.0,181.0,1
14259,-4276,6807,-1190,493,720,164.0,146.0,193.0,181.0,1
14131,-4664,6651,736,1205,247,165.0,148.0,194.0,181.0,1
13647,-4392,7035,1889,1754,-653,163.0,147.0,194.0,182.0,1
16315,-5960,8163,1514,278,-943,164.0,147.0,194.0,182.0,1
13391,-3668,7511,3505,1384,-2005,164.0,149.0,194.0,182.0,1
13251,-2320,8191,-28,684,-1525,165.0,147.0,196.0,182.0,1
13871,-5100,7283,-232,-510,1127,164.0,146.0,193.0,181.0,1
14707,-3788,7303,2274,363,799,164.0,147.0,194.0,181.0,1
14567,-3280,7463,1121,505,311,163.0,146.0,196.0,182.0,1
14275,-3828,7475,550,-43,-165,164.0,146.0,194.0,182.0,1
14443,-3996,7347,1236,-172,-466,163.0,146.0,193.0,182.0,1
14511,-3556,7383,1881,115,-282,163.0,147.0,192.0,182.0,1
14339,-3104,7795,1956,102,-14,164.0,146.0,194.0,181.0,1
14431,-2920,7511,1524,229,187,162.0,148.0,194.0,183.0,1
14223,-3144,7967,967,352,230,164.0,147.0,194.0,182.0,1
14047,-3332,8031,745,221,339,164.0,146.0,194.0,182.0,1
14055,-3596,7919,827,245,445,164.0,146.0,194.0,182.0,1
13875,-3820,8075,790,132,341,164.0,146.0,196.0,183.0,1
13531,-3796,7895,670,146,181,164.0,147.0,194.0,182.0,1
13487,-4092,7855,577,157,81,163.0,146.0,194.0,181.0,1
13855,-4000,8027,521,163,19,165.0,147.0,196.0,181.0,1
13983,-4036,7823,520,346,-43,164.0,147.0,194.0,182.0,1
13835,-4144,8199,456,564,-183,163.0,146.0,193.0,180.0,1
13939,-4124,8191,463,641,-175,162.0,147.0,194.0,181.0,1
14047,-3996,8275,272,649,-210,166.0,147.0,194.0,182.0,1
13739,-3952,8367,251,974,-115,163.0,146.0,196.0,182.0,1
13739,-3744,8839,-167,579,-237,164.0,147.0,194.0,181.0,1
14071,-3752,8487,-206,554,-319,164.0,146.0,196.0,182.0,1
13751,-4040,8307,-294,544,-122,157.0,147.0,194.0,182.0,1
13103,-5036,8131,1388,-2190,-1182,164.0,147.0,194.0,181.0,1
14819,-2452,8095,793,-533,-175,165.0,144.0,196.0,182.0,1
13727,-3488,8203,-325,574,271,164.0,148.0,194.0,182.0,1
15011,-3152,7159,-508,4171,-90,163.0,146.0,194.0,183.0,1
14151,-3752,8495,-261,3593,-475,163.0,146.0,194.0,182.0,1
14023,-4736,8143,621,37,-1718,165.0,148.0,194.0,181.0,1
12707,-4108,7723,1188,-826,-2955,165.0,146.0,194.0,181.0,1
13411,-4012,8363,2210,-943,-3241,164.0,146.0,193.0,182.0,1
14983,-2628,8591,2001,-955,-2744,164.0,146.0,194.0,182.0,1
14547,-2584,8391,1294,-456,-3301,163.0,146.0,194.0,181.0,1
13795,-2804,8219,1104,258,-3507,161.0,147.0,194.0,183.0,1
13955,-3008,8163,873,540,-3193,165.0,146.0,196.0,182.0,1
13663,-3460,8475,991,1018,-2828,165.0,146.0,193.0,181.0,1
14363,-2568,8871,213,-233,-2014,164.0,147.0,194.0,182.0,1
10287,-2556,8407,-182,1499,-4589,163.0,148.0,196.0,181.0,1
14259,-2196,8931,-306,1738,-4653,165.0,147.0,196.0,182.0,1
13867,-3380,9039,318,1060,-2898,164.0,147.0,196.0,182.0,1
14451,-2156,9179,496,1010,-2475,165.0,147.0,194.0,181.0,1
14379,-2104,9211,1235,632,-3644,164.0,147.0,194.0,181.0,1
15111,-2688,9235,1492,625,-3906,165.0,147.0,194.0,182.0,1
14391,-1712,8795,1746,474,-3213,164.0,147.0,194.0,183.0,1
12195,-1452,8779,1531,1425,-1495,165.0,149.0,196.0,184.0,1
14755,-1640,9123,1611,660,-1879,157.0,147.0,198.0,182.0,1
13871,-1292,9091,1625,1428,-2578,164.0,148.0,198.0,184.0,1
12647,-1220,9519,1381,-3,-1982,163.0,147.0,196.0,183.0,1
13511,-1388,8771,1827,-485,-210,165.0,149.0,197.0,184.0,1
13523,-608,9243,1238,-554,607,166.0,148.0,194.0,187.0,1
13611,-936,9207,287,-700,849,165.0,147.0,196.0,183.0,1
13303,-592,10479,-73,-3384,1739,163.0,148.0,196.0,184.0,1
14187,-1724,8975,-1774,-4948,2417,165.0,148.0,197.0,182.0,1
13003,-2200,8495,-2118,-3241,4002,165.0,148.0,196.0,183.0,1
13123,-6196,7891,-3741,-1618,3548,163.0,146.0,193.0,182.0,1
12651,-2992,8431,-1115,-579,3334,165.0,147.0,194.0,183.0,1
12915,-2820,8371,-582,-1046,3006,164.0,147.0,194.0,183.0,1
13879,-2564,8079,-107,-2433,3632,166.0,147.0,196.0,184.0,1
13839,-3380,8127,-493,-3026,5055,165.0,147.0,194.0,184.0,1
14343,-3040,8675,-96,-2359,3799,165.0,149.0,194.0,183.0,1
13839,-3504,7779,-37,-2416,3051,164.0,146.0,194.0,183.0,1
14275,-3972,7687,450,-1725,1599,165.0,147.0,194.0,186.0,1
13919,-3588,7959,684,-1196,-624,165.0,147.0,194.0,184.0,1
13743,-3696,8019,680,-893,-1052,163.0,147.0,194.0,183.0,1
13963,-3400,7963,1043,-856,-1108,164.0,147.0,196.0,184.0,1
14179,-3116,7943,1091,-738,-950,165.0,146.0,194.0,187.0,1
13795,-3020,8243,820,-508,-821,165.0,147.0,196.0,186.0,1
13599,-2920,8495,603,-979,-723,165.0,147.0,194.0,186.0,1
13691,-3140,8211,471,-997,-548,165.0,147.0,196.0,184.0,1
13827,-2996,8043,376,-1170,-260,164.0,147.0,194.0,186.0,1
14295,-3088,7639,352,-1302,122,164.0,148.0,194.0,187.0,1
14175,-3332,7567,488,-1163,164,164.0,148.0,196.0,186.0,1
14407,-3376,7307,716,-1252,-228,165.0,148.0,194.0,186.0,1
14179,-3144,7299,536,-1148,-338,165.0,148.0,194.0,186.0,1
14539,-3064,7487,237,-1374,-427,164.0,148.0,196.0,184.0,1
14895,-3296,7327,706,-1261,-431,164.0,148.0,194.0,187.0,1
14923,-3236,7335,1454,-1352,-611,164.0,148.0,196.0,187.0,1
14651,-2620,7715,1660,-1373,-717,165.0,147.0,193.0,184.0,1
14467,-2188,7255,1343,-1320,-643,165.0,147.0,194.0,191.0,1
14699,-2112,7315,620,-1461,-411,164.0,147.0,194.0,187.0,1
15071,-2592,7163,371,-1724,-342,166.0,148.0,194.0,186.0,1
15279,-2916,7035,789,-1448,-604,165.0,149.0,194.0,186.0,1
15059,-2820,7095,920,-1431,-712,164.0,148.0,194.0,188.0,1
14943,-2400,6927,1001,-990,-533,164.0,148.0,194.0,186.0,1
14855,-2188,6795,732,-772,-289,164.0,149.0,197.0,188.0,1
14923,-1888,7003,400,-623,-129,164.0,148.0,196.0,192.0,1
14915,-2388,6935,130,-483,-8,165.0,149.0,196.0,198.0,1
14931,-2624,7119,580,-294,298,164.0,148.0,193.0,194.0,1
14955,-2292,7195,562,-225,476,164.0,147.0,193.0,197.0,1
14767,-2348,7291,228,-205,625,165.0,149.0,193.0,194.0,1
13923,-2400,7195,-22,-62,829,165.0,148.0,194.0,192.0,1
13443,-2472,7155,-72,28,1073,165.0,147.0,196.0,193.0,1
12799,-2684,7131,140,-44,1231,165.0,148.0,194.0,193.0,1
13067,-2592,7287,915,-234,1147,165.0,147.0,193.0,194.0,1
13635,-2460,7175,1365,-438,1066,165.0,148.0,196.0,193.0,1
13923,-2260,7279,1122,-428,702,164.0,148.0,194.0,193.0,1
13783,-2160,7139,703,-325,686,165.0,148.0,194.0,194.0,1
13395,-1936,6859,525,862,1280,166.0,147.0,197.0,194.0,1
12675,-2356,6643,606,1188,2000,165.0,148.0,194.0,196.0,1
12451,-2624,6419,495,1236,2470,164.0,147.0,194.0,196.0,1
13203,-3132,7095,109,547,2788,165.0,147.0,196.0,196.0,1
14523,-3396,7051,-140,-292,3020,164.0,147.0,194.0,196.0,1
15351,-3524,7287,280,326,2754,169.0,150.0,194.0,196.0,1
15583,-3420,7479,853,590,2524,163.0,147.0,194.0,197.0,1
15499,-3480,7411,1046,1028,2029,164.0,147.0,194.0,197.0,1
15207,-3612,7843,1057,1018,2001,163.0,148.0,196.0,198.0,1
15043,-4088,7887,936,976,2209,163.0,147.0,194.0,189.0,1
14411,-4516,8027,400,1227,1449,162.0,148.0,196.0,183.0,1
14271,-4592,8431,-306,810,931,163.0,147.0,194.0,183.0,1
14407,-5084,8047,-613,1025,971,164.0,148.0,194.0,186.0,1
14131,-5580,8019,-821,1391,834,160.0,146.0,196.0,186.0,1
14535,-5828,7791,-450,1394,1035,162.0,147.0,194.0,186.0,1
14691,-5240,8183,-327,2044,-330,163.0,148.0,196.0,186.0,1
14639,-5172,8231,-1126,1785,-366,163.0,148.0,196.0,188.0,1
14447,-5812,7895,-1654,1462,-394,162.0,146.0,196.0,188.0,1
14535,-6516,7703,-1872,1107,-905,163.0,149.0,194.0,188.0,1
15371,-6296,7959,-1832,1251,-1716,162.0,149.0,194.0,189.0,1
15283,-5848,8259,-1096,1828,-2286,164.0,148.0,193.0,189.0,1
14379,-5528,8223,-484,2367,-2759,163.0,148.0,194.0,189.0,1
14307,-4928,8123,322,2166,-2858,162.0,146.0,193.0,188.0,1
14271,-4408,8259,902,2118,-2863,164.0,147.0,194.0,189.0,1
13687,-3896,8675,1540,1805,-3021,164.0,146.0,193.0,191.0,1
13535,-3172,8663,1615,1413,-3126,165.0,148.0,194.0,189.0,1
13475,-3152,8599,2028,967,-2806,165.0,148.0,194.0,188.0,1
13175,-3068,8287,2842,867,-2341,165.0,147.0,194.0,187.0,1
13163,-2804,8319,3745,960,-1884,165.0,147.0,193.0,187.0,1
13343,-1764,9135,2767,585,-1608,164.0,147.0,196.0,186.0,1
13767,-1044,8919,404,583,-696,165.0,148.0,196.0,188.0,1
13659,-976,9051,-2129,237,-711,166.0,147.0,194.0,187.0,1
13567,-2440,8927,-2722,-570,-463,163.0,147.0,194.0,188.0,1
13615,-3620,8659,-1264,-280,-260,165.0,147.0,194.0,188.0,1
13539,-3544,8559,-45,-244,26,164.0,147.0,194.0,189.0,1
13403,-2892,8463,248,-376,176,165.0,147.0,196.0,189.0,1
13483,-2456,8375,-523,-241,194,165.0,147.0,194.0,188.0,1
13243,-3416,8183,-1516,-517,174,164.0,148.0,193.0,188.0,1
13691,-4824,7879,-1163,-416,-426,164.0,149.0,194.0,188.0,1
13863,-5280,7819,802,-29,-949,164.0,148.0,193.0,189.0,1
13887,-4632,8399,2756,463,-1087,163.0,149.0,193.0,197.0,1
13691,-4000,8743,3949,607,-1002,161.0,149.0,194.0,192.0,1
13779,-3400,9063,4382,882,-892,160.0,149.0,194.0,197.0,1
13927,-2696,9143,3204,1137,-830,161.0,148.0,193.0,189.0,1
13579,-2484,9015,962,1170,-714,161.0,148.0,194.0,196.0,1
12687,-2744,9519,-665,423,-909,161.0,147.0,194.0,191.0,1
12907,-3284,9371,-159,-142,-1123,153.0,148.0,194.0,189.0,1
12591,-2948,10163,807,-261,-1016,159.0,147.0,192.0,188.0,1
13027,-2256,9667,963,-521,97,160.0,148.0,193.0,182.0,1
13187,-2440,8723,-1517,49,-3,159.0,149.0,196.0,181.0,1
13155,-2968,8847,-3815,-790,-478,159.0,147.0,193.0,187.0,1
13515,-4620,8547,-2519,-222,-989,160.0,149.0,193.0,184.0,1
13547,-4556,8259,-1541,182,-932,159.0,149.0,193.0,186.0,1
13719,-3908,8163,-1413,814,-758,157.0,149.0,192.0,188.0,1
13683,-3720,8727,-1953,772,-849,159.0,149.0,193.0,186.0,1
13639,-3756,8491,-2012,521,-894,159.0,148.0,192.0,188.0,1
13523,-4084,8363,-1854,651,-858,159.0,149.0,193.0,184.0,1
13547,-3776,8155,-1604,376,-513,159.0,148.0,192.0,182.0,1
13559,-3936,7755,-1166,701,-485,160.0,149.0,193.0,181.0,1
13147,-4320,7575,276,822,-609,159.0,149.0,193.0,182.0,1
13035,-4216,7567,2154,784,-716,160.0,149.0,192.0,181.0,1
12999,-2980,8295,4235,254,-977,159.0,149.0,193.0,182.0,1
13075,-1900,8471,2868,-302,-911,157.0,148.0,192.0,183.0,1
13339,-1500,8391,222,-1112,-861,160.0,149.0,193.0,182.0,1
13559,-2592,7431,-918,-1682,-940,159.0,150.0,193.0,182.0,1
13663,-3448,8223,6,-693,-1234,159.0,150.0,193.0,182.0,1
13295,-2836,9195,708,-822,-983,160.0,149.0,192.0,180.0,1
13283,-2556,8443,1025,-466,-852,159.0,149.0,191.0,181.0,1
13695,-2820,8563,1371,46,-998,159.0,150.0,193.0,181.0,1
13779,-2424,8935,1278,-99,-726,160.0,150.0,194.0,177.0,1
13923,-2376,9335,321,224,-327,160.0,148.0,192.0,180.0,1
13435,-2676,9287,-963,176,-154,159.0,146.0,193.0,180.0,1
13691,-3180,8987,-815,451,-265,164.0,148.0,192.0,179.0,1
13539,-3808,9027,-131,558,-392,160.0,147.0,192.0,179.0,1
13467,-3876,9011,1565,1065,-540,162.0,148.0,191.0,179.0,1
13055,-2700,9567,1496,1101,-711,158.0,148.0,193.0,179.0,1
13219,-1860,9607,289,1012,-740,158.0,148.0,192.0,177.0,1
13335,-2344,9283,-1484,998,-743,158.0,148.0,193.0,176.0,1
13415,-3428,9487,-1525,909,-994,159.0,148.0,194.0,177.0,1
13431,-4156,9415,-150,1048,-1008,158.0,147.0,197.0,176.0,1
13355,-3300,9591,921,1306,-822,157.0,149.0,194.0,176.0,1
13191,-2876,9647,674,986,-786,157.0,148.0,196.0,176.0,1
13319,-2704,9659,523,822,-795,156.0,149.0,196.0,174.0,1
13715,-2656,9083,362,870,-607,157.0,151.0,196.0,176.0,1
13363,-2732,9603,104,586,-563,157.0,151.0,196.0,176.0,1
13291,-2652,9439,403,440,-640,157.0,152.0,196.0,175.0,1
13347,-2300,9275,583,376,-680,156.0,153.0,194.0,175.0,1
13335,-2444,9383,772,68,-676,157.0,153.0,194.0,174.0,1
13275,-2268,9431,751,-269,-698,154.0,155.0,193.0,175.0,1
13267,-2444,9539,1030,-193,-648,155.0,154.0,193.0,173.0,1
13363,-2484,9471,932,-236,-525,156.0,153.0,192.0,173.0,1
13367,-2212,9787,879,-331,-341,156.0,154.0,193.0,174.0,1
13351,-2132,9483,957,-189,-335,155.0,153.0,192.0,174.0,1
13379,-2264,9931,843,-168,-213,155.0,153.0,193.0,173.0,1
13307,-2316,9915,484,-20,-238,155.0,153.0,192.0,173.0,1
13035,-2560,9703,465,3,-231,155.0,153.0,191.0,172.0,1
12983,-2692,10051,694,68,-254,155.0,153.0,191.0,173.0,1
13011,-2588,9823,675,168,-279,154.0,153.0,192.0,173.0,1
13019,-2236,9651,381,5,-340,155.0,153.0,189.0,172.0,1
13011,-2520,9551,254,57,-405,154.0,153.0,191.0,172.0,1
13119,-2524,9687,377,-47,-579,156.0,153.0,188.0,172.0,1
13151,-2360,9723,381,-218,-641,155.0,152.0,188.0,173.0,1
13163,-2064,9807,319,-209,-518,154.0,151.0,189.0,172.0,1
13291,-2076,9363,268,-197,-388,155.0,151.0,189.0,172.0,1
13375,-2128,9215,-96,-80,-447,155.0,148.0,189.0,171.0,1
13315,-2324,9679,-387,52,-469,155.0,147.0,188.0,172.0,1
12995,-2488,9767,-690,-243,-489,156.0,147.0,188.0,172.0,1
13219,-2492,9387,-477,-48,-620,155.0,145.0,187.0,170.0,1
13299,-2336,8919,-327,-223,-425,156.0,145.0,187.0,171.0,1
13219,-2424,9539,10,-66,-491,156.0,144.0,187.0,171.0,1
13355,-2200,9851,-386,-360,-548,156.0,144.0,186.0,172.0,1
13339,-1940,9719,-553,-175,-431,156.0,144.0,188.0,172.0,1
13255,-2644,9323,-479,-168,-417,157.0,145.0,189.0,172.0,1
13323,-3100,9471,433,-385,-473,156.0,144.0,187.0,172.0,1
13515,-2348,9535,1261,-245,-208,156.0,143.0,187.0,173.0,1
13011,-1808,10075,173,-949,-91,156.0,143.0,188.0,173.0,1
13323,-1880,8955,-760,-616,-206,157.0,144.0,191.0,172.0,1
13527,-2728,8927,-1171,-534,85,159.0,144.0,189.0,173.0,1
13163,-3356,9039,-887,-648,-144,161.0,147.0,191.0,173.0,1
12823,-2720,10231,-469,-339,-249,164.0,151.0,192.0,173.0,1
12955,-2120,9747,-452,-503,-184,165.0,154.0,192.0,174.0,1
13595,-1856,9203,-1137,-327,-62,169.0,158.0,193.0,175.0,1
13743,-2600,8435,-1302,-190,208,170.0,163.0,196.0,174.0,1
13451,-3220,9115,-914,453,58,174.0,170.0,200.0,174.0,1
12787,-3020,11079,-1948,-532,-205,177.0,183.0,205.0,177.0,1
13595,-2668,8883,-1490,-484,-537,182.0,194.0,214.0,180.0,1
13963,-3060,9011,-730,-602,-119,187.0,198.0,218.0,182.0,1
13431,-3220,9195,-143,-254,39,194.0,206.0,226.0,184.0,1
12867,-2900,10259,-755,-670,-15,200.0,217.0,239.0,187.0,1
13039,-3060,9127,-1658,-806,-323,198.0,218.0,242.0,188.0,1
13511,-3588,8747,-717,-679,-217,197.0,218.0,248.0,188.0,1
13635,-4112,8375,671,-395,-27,196.0,223.0,248.0,187.0,1
13435,-3296,8827,1625,214,-300,197.0,227.0,255.0,189.0,1
13019,-2172,9791,599,-471,-147,198.0,234.0,265.0,192.0,1
13011,-2580,9631,-842,-602,-99,201.0,239.0,267.0,189.0,1
13231,-3336,8963,-1111,-790,-174,202.0,239.0,267.0,189.0,1
13663,-3704,8295,-289,-615,-126,202.0,234.0,267.0,191.0,1
13767,-3740,8383,859,18,-247,204.0,234.0,267.0,192.0,1
13343,-3100,9243,1086,3,-279,206.0,237.0,271.0,191.0,1
13135,-2728,9787,290,-320,-348,211.0,244.0,279.0,192.0,1
13379,-2560,9439,-1033,-605,-254,212.0,242.0,277.0,194.0,1
13703,-3108,8971,-1267,-666,-148,214.0,242.0,277.0,192.0,1
13699,-4128,8479,-185,-321,-56,209.0,239.0,275.0,191.0,1
13307,-2676,9367,833,-312,-139,198.0,239.0,277.0,192.0,1
13227,-2600,9135,-236,-382,-50,211.0,241.0,275.0,189.0,1
13311,-3288,9075,-666,-452,-102,211.0,237.0,277.0,191.0,1
13275,-3492,8823,-529,-526,-102,211.0,234.0,271.0,191.0,1
13311,-3700,8731,218,-329,-265,211.0,231.0,273.0,192.0,1
13447,-3156,8991,380,-241,-244,211.0,227.0,267.0,191.0,1
13311,-3092,8831,41,-275,-244,209.0,224.0,267.0,191.0,1
13559,-3500,8659,-55,-183,-338,211.0,224.0,261.0,188.0,1
13531,-3484,9023,364,-173,-345,209.0,221.0,259.0,189.0,1
13643,-3208,8927,569,-96,-274,211.0,221.0,263.0,191.0,1
13355,-3084,8975,244,-281,-213,211.0,217.0,259.0,191.0,1
13471,-3240,8775,165,-117,-163,208.0,218.0,257.0,189.0,1
13323,-3528,8947,203,-231,-138,209.0,217.0,255.0,189.0,1
13311,-3336,9067,503,-248,-220,209.0,218.0,257.0,188.0,1
13323,-3120,8963,481,-385,-281,209.0,217.0,255.0,189.0,1
13563,-3116,8955,332,-377,-222,211.0,215.0,257.0,189.0,1
13443,-3336,8799,272,-254,-160,218.0,217.0,255.0,188.0,1
13427,-3476,8979,331,-322,-232,209.0,215.0,259.0,188.0,1
13559,-3236,9031,373,-310,-270,212.0,217.0,267.0,194.0,1
13479,-3232,8631,359,-145,-240,214.0,220.0,275.0,198.0,1
13427,-3312,8703,522,76,-272,212.0,223.0,286.0,204.0,1
13247,-3236,9075,335,-140,-263,218.0,227.0,290.0,208.0,1
13287,-3084,9123,172,-311,-289,221.0,231.0,295.0,218.0,1
13563,-3156,8823,272,-236,-236,224.0,234.0,300.0,220.0,1
13531,-3408,8711,564,85,-241,224.0,237.0,304.0,224.0,1
13599,-3300,9111,502,125,-202,223.0,239.0,312.0,227.0,1
13227,-3352,9495,196,-213,-214,229.0,241.0,314.0,226.0,1
13467,-3228,9407,141,-483,-285,224.0,244.0,320.0,226.0,1
13707,-3224,8791,187,-536,-162,226.0,248.0,328.0,232.0,1
13523,-3340,8935,432,-161,-122,226.0,251.0,333.0,234.0,1
13323,-3188,9103,442,-329,-134,224.0,253.0,342.0,237.0,1
13259,-2956,9475,120,-409,-118,226.0,257.0,345.0,241.0,1
13355,-3144,8651,-49,-509,-142,226.0,259.0,348.0,244.0,1
13551,-3516,8359,300,-367,-179,231.0,265.0,351.0,242.0,1
13563,-3272,8659,444,-137,-159,231.0,267.0,354.0,244.0,1
13363,-3332,8831,435,-68,-205,227.0,265.0,354.0,241.0,1
13431,-3136,8875,315,-47,-314,229.0,267.0,351.0,244.0,1
13439,-3308,8779,276,-76,-303,232.0,267.0,357.0,246.0,1
13547,-3364,8703,468,-38,-301,231.0,267.0,345.0,241.0,1
13443,-3064,9099,651,-207,-290,232.0,265.0,351.0,239.0,1
13443,-2980,9115,587,-256,-254,232.0,263.0,345.0,237.0,1
13515,-2992,9079,457,-342,-113,232.0,267.0,336.0,241.0,1
13559,-3216,9127,380,-428,-133,232.0,263.0,339.0,236.0,1
13607,-3160,9131,293,-458,-110,231.0,265.0,342.0,236.0,1
13499,-3444,8779,194,-397,-82,231.0,261.0,333.0,236.0,1
13507,-3400,8871,321,-351,-161,231.0,261.0,336.0,232.0,1
13495,-3276,8991,449,-343,-161,231.0,259.0,333.0,231.0,1
13387,-3292,8963,403,-185,-146,229.0,259.0,330.0,231.0,1
13311,-3228,9267,228,-347,-155,231.0,251.0,325.0,231.0,1
13523,-3196,8423,252,-159,-92,221.0,236.0,307.0,226.0,1
13539,-3236,8575,290,-54,-86,218.0,232.0,302.0,224.0,1
13463,-3232,9075,460,-104,-167,215.0,224.0,293.0,224.0,1
13459,-3184,9079,490,-181,-140,214.0,218.0,288.0,224.0,1
13599,-3188,8931,223,-189,-54,209.0,217.0,275.0,223.0,1
13631,-3328,9079,210,-232,-42,211.0,211.0,271.0,221.0,1
13527,-3380,8927,385,-178,-60,209.0,209.0,267.0,224.0,1
13339,-3324,9115,523,-312,-198,206.0,206.0,263.0,220.0,1
13307,-3208,9319,409,-561,-198,209.0,204.0,259.0,221.0,1
13439,-2956,9103,161,-679,-125,209.0,200.0,259.0,218.0,1
13407,-3064,8763,51,-733,-63,205.0,197.0,250.0,217.0,1
13579,-3412,8471,213,-420,-39,204.0,194.0,241.0,218.0,1
13399,-3352,8899,388,-365,-77,204.0,189.0,242.0,217.0,1
13403,-3240,9147,382,-413,-93,201.0,187.0,239.0,215.0,1
13507,-3272,8971,218,-452,-93,198.0,187.0,237.0,214.0,1
13683,-3360,8491,277,-309,-47,197.0,183.0,231.0,214.0,1
13867,-3680,8291,731,62,-97,197.0,182.0,229.0,211.0,1
13351,-3364,8779,1014,7,-174,193.0,182.0,226.0,211.0,1
13515,-3188,9055,551,-373,-329,189.0,179.0,223.0,206.0,1
13555,-3100,8835,561,-451,-258,186.0,177.0,220.0,206.0,1
13619,-3232,8843,556,-535,-152,182.0,175.0,220.0,208.0,1
13591,-3276,8775,596,-446,-201,183.0,175.0,217.0,205.0,1
13591,-3044,9051,419,-595,-127,181.0,173.0,217.0,204.0,1
13639,-3264,8731,196,-593,-192,176.0,171.0,215.0,202.0,1
13683,-3256,8683,388,-541,-197,175.0,171.0,212.0,201.0,1
13695,-3116,8675,284,-373,-70,172.0,171.0,211.0,198.0,1
13695,-3240,8675,309,-268,-34,171.0,170.0,211.0,200.0,1
13603,-3348,8627,424,-280,15,170.0,168.0,209.0,198.0,1
13551,-3120,8699,455,-255,82,168.0,166.0,205.0,197.0,1
13599,-3248,8827,275,-368,124,168.0,166.0,206.0,193.0,1
13575,-3356,8731,305,-458,150,166.0,166.0,204.0,194.0,1
13743,-3252,8735,289,-521,26,164.0,164.0,202.0,194.0,1
13795,-3332,8707,461,-527,16,166.0,165.0,204.0,193.0,1
13495,-3340,8743,281,-597,93,164.0,162.0,204.0,193.0,1
13719,-3316,8715,316,-827,73,164.0,162.0,201.0,191.0,1
13767,-3364,8743,371,-734,21,163.0,163.0,200.0,192.0,1
13839,-3408,8631,506,-515,24,163.0,164.0,198.0,192.0,1
13667,-3176,8791,536,-402,111,161.0,163.0,201.0,192.0,1
13531,-3056,8931,124,-643,316,161.0,164.0,200.0,188.0,1
13635,-3428,8631,235,-719,301,160.0,164.0,197.0,191.0,1
13555,-3588,8135,476,-569,191,161.0,164.0,198.0,188.0,1
13703,-3624,8167,505,-568,220,160.0,164.0,197.0,188.0,1
13739,-3496,8479,502,-497,106,159.0,162.0,197.0,186.0,1
13367,-3456,8767,433,-481,-70,160.0,162.0,196.0,187.0,1
13643,-3484,8423,429,-481,-76,159.0,161.0,196.0,183.0,1
13695,-3536,8363,695,-477,161,159.0,162.0,196.0,186.0,1
13875,-3528,8383,441,-136,126,160.0,161.0,196.0,184.0,1
13471,-3512,8955,166,-313,102,160.0,159.0,193.0,183.0,1
13631,-3616,8547,455,-624,119,161.0,160.0,196.0,182.0,1
13923,-3456,8255,835,-487,172,159.0,159.0,194.0,182.0,1
13699,-3444,8263,684,-391,246,160.0,159.0,193.0,183.0,1
13603,-3360,8491,503,-497,257,159.0,158.0,194.0,182.0,1
13787,-3264,8443,188,-649,348,159.0,156.0,193.0,182.0,1
13783,-3820,8051,384,-449,483,160.0,154.0,192.0,183.0,1
13607,-3696,8167,662,-406,503,161.0,153.0,194.0,182.0,1
13475,-3668,8323,746,-259,312,161.0,153.0,194.0,181.0,1
13359,-3812,8803,160,-629,116,171.0,149.0,193.0,182.0,1
13243,-3756,8683,78,-547,78,162.0,149.0,196.0,183.0,1
13495,-4012,8243,225,-478,50,164.0,150.0,194.0,182.0,1
13471,-3936,8471,223,-201,-30,165.0,149.0,194.0,182.0,1
13535,-3848,8559,44,-132,-108,163.0,149.0,193.0,181.0,1
13883,-4108,8335,-105,-2,-297,161.0,147.0,193.0,182.0,1
14063,-3836,8035,135,146,-271,160.0,149.0,194.0,180.0,1
13787,-4004,8071,79,424,-157,160.0,151.0,193.0,182.0,1
13903,-4000,8431,119,297,-257,161.0,150.0,192.0,182.0,1
14031,-3640,8451,126,117,-322,160.0,151.0,192.0,181.0,1
13715,-3612,8335,304,-163,130,158.0,151.0,193.0,182.0,1
13619,-3416,8511,61,-493,610,159.0,150.0,193.0,182.0,1
13663,-3728,8383,86,-728,626,161.0,149.0,193.0,181.0,1
13807,-3696,8263,25,-606,432,159.0,149.0,192.0,180.0,1
13971,-3880,8043,273,-759,177,159.0,148.0,191.0,180.0,1
14075,-3952,7979,683,-605,-7,160.0,148.0,192.0,177.0,1
14075,-3944,7791,649,-529,60,161.0,148.0,193.0,181.0,1
14083,-3728,8311,572,-437,66,162.0,148.0,193.0,181.0,1
14179,-3680,8319,356,-372,132,164.0,149.0,194.0,180.0,1
13867,-3984,8079,714,-291,70,165.0,150.0,196.0,180.0,1
13863,-3524,8147,1121,-357,364,171.0,153.0,200.0,182.0,1
13563,-3532,8367,866,-436,321,172.0,156.0,201.0,182.0,1
13707,-3480,8211,687,-688,375,174.0,160.0,206.0,181.0,1
13491,-3784,8375,593,-721,306,173.0,163.0,208.0,181.0,1
13599,-3660,7947,811,-737,295,175.0,165.0,208.0,180.0,1
13459,-3836,8307,818,-662,371,174.0,169.0,209.0,182.0,1
13295,-3684,7991,884,-598,300,176.0,172.0,214.0,183.0,1
13551,-3792,8127,674,-619,182,175.0,180.0,218.0,182.0,1
13271,-3660,8323,398,-717,116,175.0,182.0,221.0,183.0,1
13375,-3984,7759,390,-806,128,175.0,186.0,223.0,184.0,1
13827,-3972,8023,451,-551,-122,173.0,183.0,224.0,186.0,1
13959,-4216,7883,296,-312,-215,171.0,183.0,229.0,186.0,1
13895,-4480,7999,419,-215,-353,172.0,183.0,232.0,187.0,1
14171,-4072,8047,538,-255,-344,172.0,187.0,232.0,191.0,1
14319,-4072,8051,385,-132,-465,172.0,184.0,234.0,189.0,1
14531,-4360,7799,441,123,-447,173.0,184.0,234.0,189.0,1
14463,-4584,7471,1065,551,-479,172.0,186.0,241.0,194.0,1
14347,-3880,8243,1249,805,-435,172.0,187.0,246.0,201.0,1
13907,-3444,8819,543,398,-266,170.0,189.0,250.0,209.0,1
13951,-3876,8291,177,298,-165,172.0,189.0,257.0,221.0,1
14195,-4048,7851,516,496,63,172.0,189.0,261.0,241.0,1
13859,-4036,7839,1063,725,255,173.0,188.0,267.0,257.0,1
13655,-3888,8427,914,800,341,171.0,189.0,271.0,271.0,1
13375,-3588,8231,656,562,304,171.0,187.0,273.0,279.0,1
13695,-3592,7911,642,338,417,173.0,189.0,275.0,288.0,1
13599,-4344,8023,784,300,494,171.0,191.0,273.0,295.0,1
13403,-4348,8383,905,243,447,172.0,188.0,275.0,295.0,1
13151,-3980,8459,912,59,252,172.0,189.0,275.0,295.0,1
13127,-3812,8571,788,-205,104,171.0,192.0,275.0,297.0,1
13355,-3944,8455,698,-191,-40,173.0,192.0,277.0,293.0,1
13311,-3932,8339,741,-171,-166,173.0,193.0,275.0,295.0,1
13291,-3692,8459,791,-126,-361,173.0,194.0,275.0,288.0,1
13443,-3740,8487,790,-112,-605,176.0,194.0,277.0,286.0,1
13623,-3748,8603,490,186,-772,184.0,205.0,288.0,288.0,1
13795,-3796,8555,790,379,-839,189.0,215.0,295.0,290.0,1
13923,-3580,8919,649,309,-765,191.0,215.0,302.0,302.0,1
13955,-3776,8839,621,304,-737,191.0,215.0,302.0,302.0,1
13843,-3704,8411,756,701,-830,193.0,218.0,302.0,302.0,1
13515,-3648,8747,927,607,-799,196.0,220.0,304.0,300.0,1
13239,-3384,9079,1049,489,-688,197.0,226.0,302.0,300.0,1
13119,-3512,9315,868,330,-716,200.0,227.0,304.0,295.0,1
13307,-3384,9331,758,310,-611,201.0,229.0,300.0,293.0,1
13375,-3360,9127,589,458,-476,201.0,232.0,302.0,284.0,1
13447,-3452,9063,273,855,-198,204.0,237.0,295.0,277.0,1
13227,-3640,9715,-47,593,9,205.0,241.0,293.0,271.0,1
13167,-3836,9215,-293,329,-60,206.0,248.0,293.0,261.0,1
13195,-3776,9155,-444,240,-118,205.0,250.0,295.0,253.0,1
13155,-3696,9051,-276,117,-191,205.0,255.0,293.0,248.0,1
13055,-3448,8875,-205,-53,-226,208.0,255.0,290.0,244.0,1
13247,-3328,8955,-216,-74,-306,204.0,253.0,293.0,246.0,1
13347,-3504,8699,-436,130,-502,204.0,253.0,293.0,241.0,1
13591,-3464,8647,-492,66,-484,205.0,253.0,290.0,236.0,1
13603,-3904,8599,-44,228,-699,204.0,255.0,297.0,232.0,1
13723,-3680,8731,258,123,-927,204.0,257.0,297.0,231.0,1
13459,-3516,8819,751,240,-881,194.0,253.0,307.0,231.0,1
13839,-3280,8559,685,416,-838,204.0,255.0,312.0,229.0,1
13799,-3252,8875,349,310,-704,202.0,255.0,309.0,229.0,1
13491,-3408,9031,649,208,-546,205.0,253.0,312.0,231.0,1
13539,-3196,8847,814,292,-394,201.0,259.0,309.0,226.0,1
13375,-3116,9183,532,382,-175,204.0,263.0,314.0,226.0,1
13131,-3388,9263,456,207,31,204.0,267.0,317.0,227.0,1
12975,-3388,9483,542,113,99,204.0,267.0,320.0,227.0,1
13031,-3316,9311,266,-210,143,204.0,267.0,320.0,227.0,1
13351,-3416,9139,76,-150,242,205.0,267.0,320.0,226.0,1
13207,-3768,8955,161,6,343,206.0,281.0,320.0,226.0,1
13071,-3632,9119,23,47,303,211.0,288.0,317.0,224.0,1
12983,-3608,9087,-193,-54,145,212.0,295.0,320.0,229.0,1
13235,-3712,8999,-93,-97,5,217.0,302.0,317.0,224.0,1
13355,-3688,8451,94,75,-201,220.0,312.0,320.0,226.0,1
13511,-3688,8595,262,431,-454,223.0,322.0,320.0,224.0,1
13271,-3648,8979,317,390,-702,229.0,330.0,325.0,226.0,1
13367,-3384,9387,306,199,-858,234.0,330.0,320.0,224.0,1
13387,-3336,9247,711,134,-912,244.0,336.0,320.0,221.0,1
13311,-3344,9015,980,66,-796,246.0,336.0,317.0,224.0,1
13383,-3008,9659,665,11,-423,263.0,342.0,312.0,224.0,1
13211,-3080,9903,470,-337,-242,273.0,345.0,309.0,223.0,1
13203,-3164,9495,317,-409,-16,286.0,357.0,312.0,223.0,1
13179,-3640,8855,564,-236,122,295.0,363.0,314.0,223.0,1
13139,-3576,9103,693,-162,222,300.0,363.0,309.0,223.0,1
13091,-3300,9379,438,-117,207,302.0,373.0,312.0,224.0,1
13255,-3436,9399,238,-229,156,312.0,370.0,312.0,221.0,1
13479,-3724,9147,239,-132,197,317.0,367.0,312.0,221.0,1
13415,-3812,9167,404,179,202,317.0,367.0,314.0,221.0,1
13075,-3620,9343,135,202,243,348.0,363.0,312.0,221.0,1
12935,-3592,9675,-183,160,207,320.0,360.0,314.0,220.0,1
12859,-3504,9587,-353,0,-23,309.0,357.0,302.0,220.0,1
13123,-3752,9347,-468,-25,-244,300.0,333.0,297.0,220.0,1
13279,-3612,9335,-708,51,-393,286.0,314.0,288.0,218.0,1
13543,-3828,8875,-224,240,-597,277.0,302.0,279.0,220.0,1
13299,-3760,9291,37,388,-755,271.0,290.0,273.0,218.0,1
13263,-3392,9115,494,78,-727,261.0,267.0,263.0,217.0,1
13323,-3536,8823,600,246,-613,257.0,255.0,257.0,217.0,1
13367,-3180,9207,623,224,-379,251.0,251.0,251.0,217.0,1
13007,-3080,9603,353,-197,-113,248.0,246.0,250.0,218.0,1
13027,-3168,9355,305,-329,45,244.0,241.0,244.0,215.0,1
13111,-3588,9131,414,-433,156,239.0,236.0,244.0,217.0,1
13023,-3452,9123,502,-477,311,236.0,227.0,241.0,214.0,1
12907,-3580,9343,413,-475,247,232.0,221.0,239.0,217.0,1
13051,-3740,9347,245,-599,187,226.0,215.0,234.0,217.0,1
13523,-3912,9263,428,-455,240,226.0,211.0,231.0,217.0,1
12831,-4080,9471,393,88,268,217.0,201.0,232.0,215.0,1
12747,-3544,9563,286,-224,274,215.0,200.0,229.0,214.0,1
12687,-3552,9551,38,-290,230,211.0,197.0,226.0,212.0,1
12763,-3764,9123,9,-262,48,208.0,194.0,227.0,212.0,1
13055,-3744,9011,226,-184,-192,202.0,194.0,226.0,211.0,1
13167,-3756,9055,190,-79,-354,200.0,191.0,223.0,208.0,1
13119,-3772,9323,302,-245,-454,196.0,193.0,220.0,211.0,1
13327,-3620,9375,275,-245,-525,192.0,194.0,221.0,208.0,1
13395,-3676,9079,409,-159,-677,188.0,193.0,218.0,206.0,1
13495,-3812,8787,947,-21,-581,184.0,192.0,218.0,205.0,1
13255,-3288,9255,999,19,-302,182.0,194.0,217.0,204.0,1
12987,-3152,9647,711,-362,-143,180.0,196.0,217.0,202.0,1
12979,-3144,9547,456,-520,-72,176.0,198.0,215.0,202.0,1
13227,-3608,9339,459,-432,142,176.0,202.0,212.0,202.0,1
13107,-3720,9307,695,-428,342,171.0,209.0,212.0,198.0,1
13003,-3676,9379,455,-479,402,171.0,211.0,211.0,197.0,1
12895,-3900,9615,76,-650,340,169.0,212.0,209.0,197.0,1
13127,-4040,9259,-110,-654,441,168.0,217.0,209.0,196.0,1
13031,-4296,8939,81,-248,340,164.0,224.0,209.0,194.0,1
13019,-3920,9019,116,-45,342,164.0,227.0,206.0,194.0,1
12575,-3624,9459,-175,-234,151,164.0,227.0,205.0,194.0,1
12707,-3524,9627,-536,-556,-3,163.0,227.0,205.0,192.0,1
13175,-3972,9291,-555,-378,-190,163.0,227.0,204.0,191.0,1
13223,-4112,9351,-399,-409,-186,163.0,224.0,204.0,189.0,1
13227,-3868,9319,-243,-440,-290,162.0,221.0,202.0,189.0,1
13563,-3636,9055,-404,-544,-284,161.0,218.0,202.0,187.0,1
13463,-3788,8515,-275,-426,-393,163.0,217.0,201.0,189.0,1
13459,-3972,8819,46,-393,-660,161.0,217.0,201.0,188.0,1
13739,-4008,8659,355,-327,-716,163.0,214.0,201.0,189.0,1
13539,-3780,8723,511,-182,-535,160.0,217.0,201.0,187.0,1
13399,-3920,8887,623,-339,-378,160.0,215.0,197.0,188.0,1
13115,-3568,9251,956,-186,-232,160.0,220.0,200.0,186.0,1
12711,-3324,9735,450,-520,122,160.0,224.0,200.0,186.0,1
12815,-3296,9583,128,-971,416,160.0,229.0,201.0,187.0,1
13079,-4004,8827,137,-760,491,160.0,231.0,198.0,183.0,1
13047,-4396,8967,520,-535,464,159.0,232.0,198.0,184.0,1
13103,-4124,9027,-55,-569,405,159.0,239.0,198.0,183.0,1
13175,-4420,9199,-245,-605,345,161.0,241.0,197.0,182.0,1
13027,-4404,8735,142,-295,255,159.0,246.0,198.0,184.0,1
13019,-4344,8699,541,-377,162,159.0,248.0,197.0,184.0,1
12827,-3740,9083,195,-428,58,159.0,250.0,198.0,182.0,1
12871,-3972,9223,-41,-871,-119,159.0,250.0,198.0,197.0,1
13119,-4280,8951,183,-725,-319,160.0,253.0,197.0,183.0,1
13343,-4184,8415,637,-662,-492,158.0,251.0,197.0,192.0,1
13527,-4032,8711,670,-497,-534,157.0,251.0,196.0,186.0,1
13327,-3912,8811,379,-532,-448,160.0,255.0,197.0,184.0,1
13435,-4056,8511,649,-342,-399,158.0,255.0,197.0,181.0,1
13111,-3620,8827,646,-422,-272,159.0,255.0,196.0,182.0,1
13103,-3524,8439,557,-558,-42,158.0,257.0,197.0,182.0,1
12835,-3864,8427,407,-587,63,159.0,257.0,197.0,182.0,1
13163,-4132,8411,474,-687,159,158.0,257.0,197.0,181.0,1
13443,-4332,8375,391,-488,221,158.0,255.0,198.0,181.0,1
13459,-4604,8231,344,-187,132,159.0,255.0,196.0,181.0,1
13699,-4804,8175,330,158,-18,158.0,255.0,197.0,180.0,1
13991,-4816,8011,310,356,-187,159.0,253.0,197.0,182.0,1
14147,-4496,8123,206,724,-275,158.0,253.0,196.0,182.0,1
14243,-4476,8387,-62,968,-344,159.0,253.0,196.0,182.0,1
14271,-4232,8443,75,1226,-573,158.0,251.0,196.0,181.0,1
13887,-3900,8571,202,1196,-697,156.0,251.0,193.0,182.0,1
13703,-3720,8583,444,1058,-737,158.0,253.0,196.0,182.0,1
13359,-3192,8567,668,959,-752,158.0,253.0,196.0,181.0,1
13191,-2796,8723,439,396,-558,160.0,255.0,194.0,181.0,1
13559,-3136,8643,325,108,-406,158.0,255.0,196.0,181.0,1
13731,-3348,8471,451,198,-418,157.0,255.0,194.0,181.0,1
13643,-3584,8487,590,374,-462,159.0,261.0,197.0,181.0,1
13611,-3732,8671,778,615,-555,159.0,263.0,194.0,182.0,1
13883,-3772,8811,813,464,-316,157.0,261.0,194.0,182.0,1
13783,-3860,9079,758,760,-197,162.0,265.0,196.0,182.0,1
13647,-3720,8915,820,928,-195,160.0,263.0,194.0,183.0,1
12799,-3528,9839,533,1266,83,157.0,267.0,194.0,181.0,1
12775,-3520,9971,444,1101,133,157.0,265.0,197.0,182.0,1
12623,-3652,10179,151,980,183,158.0,267.0,196.0,181.0,1
12807,-3700,9967,-160,816,184,156.0,265.0,194.0,181.0,1
12883,-3812,9895,-539,924,108,157.0,269.0,196.0,182.0,1
12755,-4036,10063,-915,545,44,158.0,261.0,194.0,181.0,1
12615,-4024,9675,-946,589,-165,158.0,253.0,196.0,180.0,1
12679,-3860,9259,-1152,436,-197,158.0,248.0,194.0,179.0,1
12931,-3812,9019,-985,651,-491,159.0,248.0,197.0,180.0,1
13311,-4096,8527,-773,779,-727,157.0,244.0,194.0,179.0,1
13603,-3892,8455,-509,1195,-915,158.0,241.0,196.0,179.0,1
13527,-3588,8755,-649,1287,-854,160.0,237.0,194.0,180.0,1
13371,-3800,8987,-734,1197,-671,158.0,236.0,194.0,180.0,1
13283,-3952,9095,-264,962,-598,159.0,234.0,196.0,179.0,1
12755,-3928,9447,733,773,-476,159.0,232.0,193.0,180.0,1
12123,-3876,10123,1110,189,-230,160.0,232.0,194.0,181.0,1
12047,-3624,10371,946,-125,-80,158.0,231.0,194.0,177.0,1
12007,-3828,10707,329,-601,237,158.0,229.0,194.0,179.0,1
12087,-4976,10427,36,-626,575,160.0,227.0,194.0,180.0,1
12487,-5096,9883,138,-437,558,160.0,227.0,194.0,180.0,1
12595,-5096,10023,52,-185,664,161.0,227.0,194.0,180.0,1
12547,-4992,9743,69,-139,627,160.0,224.0,193.0,184.0,1
12567,-4592,9811,192,104,468,159.0,226.0,196.0,183.0,1
12499,-4320,9959,168,128,505,160.0,226.0,196.0,191.0,1
12299,-4192,9787,432,216,708,160.0,224.0,194.0,186.0,1
11927,-4172,10319,460,-22,996,159.0,226.0,194.0,182.0,1
11695,-4120,10343,412,-282,1164,159.0,224.0,193.0,181.0,1
11527,-4312,10499,238,-431,1030,159.0,223.0,196.0,181.0,1
11515,-4852,10343,31,-1000,475,160.0,223.0,196.0,180.0,1
11643,-5116,9979,-1,-1150,112,159.0,223.0,193.0,181.0,1
11955,-4928,9551,196,-961,-186,160.0,221.0,194.0,180.0,1
12283,-4712,9543,-112,-1012,-452,160.0,221.0,194.0,182.0,1
12695,-4676,9019,-110,-637,-538,161.0,221.0,194.0,181.0,1
12931,-4628,8751,-74,-152,-563,160.0,220.0,194.0,181.0,1
12971,-4448,8671,-62,406,-488,160.0,223.0,194.0,182.0,1
13139,-4176,8515,-182,894,-277,160.0,223.0,194.0,181.0,1
13407,-4188,8823,-285,1208,-162,159.0,220.0,193.0,181.0,1
13371,-4256,9095,-149,1410,-81,160.0,221.0,194.0,182.0,1
12911,-4432,9323,204,1531,-5,170.0,223.0,194.0,182.0,1
12675,-4292,9855,397,1165,64,160.0,223.0,194.0,181.0,1
12727,-4140,10295,286,735,20,160.0,221.0,194.0,180.0,1
12419,-4312,10443,2,373,145,159.0,220.0,194.0,182.0,1
12107,-4952,10087,-263,-112,177,161.0,221.0,194.0,182.0,1
12131,-5104,9859,-262,-725,55,160.0,221.0,194.0,181.0,1
12283,-5292,9623,-122,-891,-148,159.0,221.0,194.0,181.0,1
12267,-5116,9103,33,-1010,-312,160.0,221.0,193.0,182.0,1
12367,-4820,8887,238,-886,-524,162.0,220.0,194.0,182.0,1
12695,-4540,8235,390,-449,-525,160.0,221.0,194.0,182.0,1
12583,-4348,8151,262,160,-509,159.0,221.0,196.0,183.0,1
12963,-4020,8075,-37,701,-487,161.0,223.0,194.0,181.0,1
13015,-4056,8731,-322,1324,-528,160.0,221.0,194.0,182.0,1
11995,-4812,10807,-284,1379,-49,348.0,320.0,383.0,290.0,2
11915,-4692,10995,442,1118,-454,345.0,317.0,377.0,290.0,2
11559,-4360,11027,650,928,-493,348.0,314.0,380.0,290.0,2
11543,-4188,10883,1030,973,-511,348.0,314.0,380.0,293.0,2
11127,-3676,11431,1103,952,-518,348.0,317.0,380.0,290.0,2
10583,-3224,11711,757,868,-439,348.0,317.0,383.0,290.0,2
10211,-3292,12039,483,518,-336,345.0,312.0,383.0,290.0,2
10259,-3332,11799,347,396,-318,348.0,312.0,380.0,288.0,2
10371,-3572,12087,489,229,-196,345.0,317.0,377.0,293.0,2
10523,-3724,12095,604,228,-110,345.0,317.0,380.0,290.0,2
10523,-3680,12127,384,405,-39,345.0,317.0,383.0,293.0,2
10811,-4288,11491,20,579,-277,345.0,314.0,380.0,288.0,2
11047,-4568,11507,105,628,-398,345.0,312.0,380.0,293.0,2
11263,-4768,11491,314,918,-620,345.0,317.0,383.0,290.0,2
11107,-4432,11667,627,1334,-639,345.0,314.0,383.0,290.0,2
10791,-3844,11995,482,1490,-637,345.0,314.0,380.0,290.0,2
10495,-3664,12115,147,1374,-683,342.0,312.0,380.0,288.0,2
10235,-3724,11995,53,1179,-631,345.0,312.0,380.0,290.0,2
10203,-3656,12147,216,1010,-526,345.0,317.0,383.0,290.0,2
10359,-3392,12491,110,865,-453,345.0,314.0,383.0,290.0,2
10163,-3472,12203,-26,629,-353,345.0,314.0,383.0,288.0,2
10155,-3692,11839,55,486,-191,345.0,312.0,380.0,288.0,2
10723,-3832,11527,394,469,-51,348.0,317.0,383.0,290.0,2
10739,-3840,11387,379,715,-29,342.0,314.0,387.0,290.0,2
10655,-4060,11459,93,753,10,342.0,314.0,387.0,290.0,2
10823,-4052,11695,46,727,-8,345.0,312.0,377.0,290.0,2
10563,-3740,12275,-337,764,-31,339.0,312.0,387.0,290.0,2
10051,-3688,12383,-895,373,4,345.0,320.0,383.0,293.0,2
9851,-3928,12659,-871,94,-4,342.0,314.0,383.0,288.0,2
9895,-4092,12623,-256,-276,33,345.0,312.0,373.0,290.0,2
9667,-3828,12775,142,-360,143,342.0,312.0,383.0,290.0,2
9603,-4000,12883,337,-612,157,351.0,309.0,383.0,286.0,2
9799,-4132,12359,7,-918,-155,342.0,317.0,383.0,293.0,2
9915,-4220,12407,-68,-995,-113,345.0,312.0,383.0,288.0,2
10259,-4404,12031,160,-800,-161,345.0,312.0,380.0,293.0,2
10319,-4344,12007,218,-776,-246,345.0,312.0,380.0,290.0,2
10483,-4332,11571,271,-551,-281,345.0,314.0,383.0,290.0,2
10503,-4420,11687,165,-560,-353,342.0,314.0,383.0,293.0,2
10711,-4448,11571,-55,-427,-475,345.0,314.0,380.0,288.0,2
10807,-4552,11459,-223,-245,-539,345.0,312.0,380.0,290.0,2
10763,-4576,11407,-157,-195,-573,342.0,314.0,383.0,293.0,2
10495,-4400,11403,-136,-180,-615,345.0,317.0,383.0,290.0,2
10447,-4260,11375,-170,-304,-702,345.0,317.0,383.0,288.0,2
10483,-4448,11491,64,-373,-736,345.0,314.0,383.0,290.0,2
10431,-4380,11423,410,-455,-754,342.0,314.0,380.0,293.0,2
10439,-3928,11387,418,-543,-673,345.0,317.0,380.0,295.0,2
10687,-4100,11407,429,-495,-695,345.0,314.0,383.0,295.0,2
10695,-4028,11619,298,-549,-631,342.0,317.0,383.0,295.0,2
10799,-4228,11527,401,-406,-438,342.0,317.0,383.0,293.0,2
10759,-3996,11727,600,-253,-246,345.0,312.0,380.0,293.0,2
10947,-4028,11847,398,-114,-162,345.0,317.0,383.0,295.0,2
10751,-4176,11987,409,-27,19,345.0,317.0,383.0,290.0,2
10791,-4176,11711,297,-68,102,345.0,317.0,383.0,293.0,2
10751,-4168,12251,248,-5,114,348.0,312.0,380.0,293.0,2
10559,-4324,12223,216,-148,71,345.0,317.0,383.0,295.0,2
10419,-4300,12259,191,-229,92,342.0,314.0,383.0,293.0,2
10235,-4396,11991,316,-470,53,342.0,312.0,377.0,288.0,2
10255,-4332,11827,343,-569,-42,345.0,314.0,387.0,293.0,2
10299,-4304,11595,357,-691,-156,342.0,312.0,380.0,295.0,2
10243,-4336,11779,501,-669,-246,342.0,314.0,380.0,288.0,2
10379,-4128,11199,269,-597,-347,345.0,317.0,380.0,293.0,2
10423,-4328,11411,116,-558,-386,339.0,320.0,391.0,295.0,2
10451,-4512,11355,430,-446,-496,342.0,314.0,380.0,293.0,2
10411,-4368,11343,666,-393,-635,345.0,312.0,380.0,293.0,2
10439,-3940,11443,540,-415,-627,342.0,325.0,380.0,297.0,2
10579,-4184,11571,468,-215,-615,345.0,314.0,387.0,295.0,2
10791,-4088,11279,447,-258,-588,342.0,314.0,383.0,290.0,2
10555,-4288,11827,469,-263,-489,342.0,309.0,380.0,293.0,2
10631,-4016,12007,421,-171,-520,342.0,309.0,383.0,290.0,2
10611,-4080,11639,393,-339,-528,339.0,314.0,383.0,293.0,2
10707,-4036,11811,578,-320,-502,345.0,317.0,383.0,295.0,2
10587,-3792,11843,583,-349,-399,345.0,314.0,383.0,295.0,2
10807,-3776,11675,434,-392,-295,345.0,309.0,380.0,293.0,2
10827,-3916,11563,217,-385,-319,342.0,314.0,380.0,293.0,2
10815,-4052,11619,118,-186,-260,342.0,317.0,383.0,293.0,2
10755,-4168,11603,328,-61,-169,345.0,312.0,380.0,293.0,2
10707,-4140,11871,464,147,-32,342.0,312.0,383.0,295.0,2
10455,-4148,11627,155,-14,-88,345.0,309.0,380.0,290.0,2
10539,-4172,11859,192,-221,-240,342.0,314.0,383.0,293.0,2
10451,-4136,11855,344,-399,-319,339.0,314.0,377.0,290.0,2
10247,-4216,11879,371,-371,-406,345.0,312.0,383.0,290.0,2
10475,-4064,11963,312,-566,-546,339.0,312.0,380.0,293.0,2
10547,-4080,11871,343,-450,-625,345.0,312.0,380.0,295.0,2
10631,-3988,11955,408,-438,-600,342.0,317.0,383.0,293.0,2
10587,-3852,11991,184,-317,-484,342.0,309.0,380.0,288.0,2
10583,-3888,11931,-23,-285,-362,342.0,314.0,383.0,293.0,2
10687,-3924,11595,-25,-284,-369,342.0,312.0,380.0,288.0,2
10619,-4060,11515,37,-311,-421,342.0,312.0,380.0,290.0,2
10555,-4152,11511,133,-514,-592,342.0,317.0,383.0,293.0,2
10623,-4004,11579,258,-698,-798,342.0,317.0,391.0,290.0,2
10579,-4004,11819,241,-801,-851,342.0,314.0,383.0,290.0,2
10555,-4012,11951,313,-867,-905,342.0,309.0,380.0,290.0,2
10727,-3972,11703,285,-984,-994,342.0,312.0,380.0,290.0,2
10667,-3916,11715,301,-995,-1014,342.0,317.0,383.0,290.0,2
10779,-3940,11423,293,-762,-1035,342.0,312.0,377.0,288.0,2
11327,-4052,10979,36,-35,-842,342.0,312.0,377.0,290.0,2
11267,-3856,11091,-189,190,-734,339.0,312.0,377.0,290.0,2
11283,-4016,11003,-15,535,-684,342.0,314.0,383.0,293.0,2
11447,-3896,11111,352,502,-548,342.0,314.0,387.0,295.0,2
11703,-3492,11115,350,604,-304,342.0,314.0,383.0,293.0,2
12063,-3480,11215,309,493,-72,342.0,312.0,380.0,293.0,2
11975,-3564,11271,537,380,104,345.0,312.0,380.0,295.0,2
11583,-3460,11187,1112,290,456,342.0,314.0,383.0,293.0,2
11127,-3072,11559,1494,-32,640,342.0,314.0,387.0,290.0,2
10999,-2932,11587,1537,-242,659,342.0,312.0,383.0,290.0,2
10731,-3244,11687,1525,-459,699,342.0,314.0,387.0,293.0,2
10503,-3316,11935,1403,-606,796,342.0,314.0,383.0,293.0,2
10375,-3608,12059,1208,-686,683,345.0,317.0,380.0,293.0,2
10363,-3912,12219,1045,-1063,338,342.0,314.0,383.0,293.0,2
10223,-4272,11951,1147,-1251,2,339.0,312.0,380.0,290.0,2
10431,-4468,11767,1501,-1427,-123,339.0,312.0,383.0,293.0,2
10591,-4132,11739,1581,-1358,-253,342.0,314.0,387.0,293.0,2
10595,-3996,11591,1334,-1347,-384,339.0,314.0,387.0,295.0,2
10675,-3948,11307,1135,-1251,-567,342.0,314.0,380.0,290.0,2
10671,-3964,11347,977,-1190,-540,342.0,314.0,380.0,290.0,2
10679,-4064,11559,779,-499,-304,342.0,314.0,387.0,293.0,2
10755,-4264,11763,374,-449,-367,342.0,309.0,387.0,293.0,2
10783,-4440,11763,-4,-631,-632,345.0,312.0,383.0,293.0,2
11011,-4628,11635,328,-715,-786,342.0,309.0,377.0,290.0,2
10951,-4456,11619,723,-740,-869,342.0,314.0,387.0,295.0,2
11287,-3916,11407,796,-775,-791,339.0,312.0,380.0,293.0,2
11591,-3516,11307,679,-843,-700,345.0,312.0,383.0,293.0,2
11951,-3380,10831,618,-501,-666,342.0,312.0,380.0,288.0,2
11691,-3156,10827,379,-486,-447,342.0,312.0,380.0,295.0,2
11639,-3336,10727,279,-249,-220,339.0,309.0,383.0,290.0,2
11507,-4356,10587,656,-180,-433,345.0,312.0,383.0,293.0,2
11087,-3800,10823,1042,-182,-807,339.0,317.0,387.0,295.0,2
11187,-2840,10807,599,-231,-691,339.0,312.0,380.0,295.0,2
11375,-2328,11211,135,-432,-603,339.0,309.0,380.0,293.0,2
11719,-2504,11067,280,-383,-271,339.0,314.0,380.0,295.0,2
11567,-2824,11351,709,-600,-3,342.0,312.0,383.0,293.0,2
11783,-2652,11263,555,-487,348,342.0,309.0,383.0,295.0,2
11623,-3568,10943,143,-473,247,342.0,309.0,380.0,295.0,2
11391,-3244,11063,-275,-86,55,342.0,307.0,383.0,297.0,2
11447,-3260,11487,-96,10,66,345.0,307.0,380.0,295.0,2
11175,-3116,11779,464,-52,157,345.0,312.0,383.0,295.0,2
11299,-3344,11715,913,-331,237,339.0,307.0,380.0,295.0,2
11747,-3528,11715,983,-251,191,345.0,304.0,380.0,293.0,2
11407,-3496,11847,560,-279,142,342.0,300.0,377.0,293.0,2
11447,-3488,11679,-98,-134,182,339.0,304.0,380.0,295.0,2
11595,-3576,11871,-348,-176,69,342.0,307.0,383.0,295.0,2
11455,-3592,11643,-1,1,69,333.0,304.0,380.0,293.0,2
11435,-3536,11519,380,-168,219,336.0,300.0,380.0,295.0,2
11379,-3488,11399,596,-118,-4,333.0,302.0,380.0,293.0,2
11123,-3300,11539,278,-209,-81,328.0,302.0,377.0,295.0,2
10955,-3012,11503,19,-315,-15,328.0,302.0,380.0,295.0,2
11175,-3248,11731,180,-518,86,328.0,302.0,380.0,295.0,2
11195,-3376,11523,253,-527,121,330.0,297.0,380.0,293.0,2
11291,-3524,11155,-68,-518,180,336.0,302.0,380.0,297.0,2
11567,-4060,11119,-88,-256,16,330.0,300.0,380.0,290.0,2
11571,-4044,11047,7,-66,-69,328.0,302.0,380.0,295.0,2
11415,-3920,11083,21,96,-117,328.0,300.0,380.0,295.0,2
11295,-3508,11155,-60,86,-96,328.0,297.0,380.0,293.0,2
11283,-3676,11363,138,128,-123,333.0,302.0,380.0,293.0,2
11243,-3568,11227,302,52,-102,333.0,304.0,387.0,293.0,2
11251,-3696,11379,275,-120,-223,328.0,300.0,380.0,293.0,2
11219,-3600,11351,105,-251,-259,325.0,302.0,383.0,293.0,2
11175,-3424,11279,194,-285,-150,328.0,297.0,383.0,295.0,2
11127,-3228,11463,237,-363,-51,328.0,302.0,380.0,293.0,2
11319,-3376,11287,217,-451,109,322.0,297.0,380.0,293.0,2
11155,-3524,11219,-82,-378,185,322.0,300.0,380.0,293.0,2
11287,-4008,10911,137,-252,122,333.0,297.0,380.0,293.0,2
11335,-3980,10883,318,29,87,342.0,300.0,383.0,295.0,2
11555,-3928,10731,391,123,156,342.0,302.0,380.0,290.0,2
11331,-3992,10879,549,451,41,333.0,300.0,380.0,293.0,2
11075,-4192,11071,731,223,-241,333.0,300.0,380.0,293.0,2
11007,-4432,11223,1002,162,-524,333.0,297.0,380.0,293.0,2
11091,-3624,11487,826,-71,-527,336.0,300.0,383.0,295.0,2
11019,-3548,11547,655,-193,-483,333.0,300.0,383.0,290.0,2
11087,-3420,11715,980,-384,-385,330.0,302.0,383.0,293.0,2
11059,-3524,11599,1176,-411,-203,325.0,300.0,380.0,293.0,2
11235,-4340,11423,1077,-591,-364,330.0,302.0,380.0,293.0,2
11375,-3780,11171,1015,-450,-528,330.0,297.0,383.0,295.0,2
11387,-3456,11095,931,-354,-328,330.0,300.0,383.0,290.0,2
11627,-3248,11263,1158,-364,-337,336.0,300.0,380.0,288.0,2
11527,-3100,11503,634,-185,-159,333.0,300.0,383.0,295.0,2
11499,-3356,11155,-126,-142,8,333.0,302.0,380.0,293.0,2
11427,-3776,11459,36,-169,6,333.0,304.0,383.0,293.0,2
11343,-3760,11439,453,128,67,330.0,300.0,380.0,290.0,2
10987,-3592,11251,257,-134,189,333.0,300.0,383.0,293.0,2
11031,-3632,11487,63,-323,5,339.0,297.0,383.0,293.0,2
10791,-3952,11267,54,-751,-264,336.0,302.0,383.0,295.0,2
10815,-4208,11327,490,-932,-429,333.0,297.0,380.0,290.0,2
10971,-4040,11199,1002,-1376,-527,333.0,297.0,380.0,293.0,2
11031,-3612,11307,1137,-1595,-729,333.0,297.0,380.0,288.0,2
11203,-3488,11283,1058,-1870,-776,339.0,300.0,383.0,295.0,2
11387,-3364,10951,902,-1839,-659,336.0,302.0,383.0,295.0,2
11755,-3708,10919,780,-1580,-436,336.0,297.0,380.0,290.0,2
11719,-3588,10943,589,-1257,-294,336.0,297.0,383.0,293.0,2
11639,-3712,11027,334,-1227,-163,336.0,300.0,380.0,293.0,2
11639,-3804,11079,232,-1028,-203,336.0,300.0,380.0,295.0,2
11479,-3884,10843,327,-1083,-122,333.0,300.0,387.0,293.0,2
11495,-3736,11047,547,-955,-101,336.0,300.0,380.0,293.0,2
11747,-3636,10827,586,-1147,-174,336.0,297.0,377.0,290.0,2
11571,-3364,10963,556,-1297,-384,336.0,297.0,383.0,293.0,2
11603,-3360,10695,582,-1284,-623,336.0,300.0,383.0,295.0,2
11695,-3140,11159,234,-1153,-566,336.0,297.0,387.0,290.0,2
12051,-2924,11091,658,-930,-159,336.0,297.0,380.0,295.0,2
11959,-2600,10791,481,-958,-141,322.0,302.0,383.0,295.0,2
11859,-2784,10331,150,-491,-86,336.0,302.0,383.0,293.0,2
12411,-3112,10243,256,-388,274,336.0,302.0,380.0,293.0,2
12847,-2856,10007,343,10,495,333.0,302.0,380.0,295.0,2
13127,-2588,10415,87,167,746,333.0,300.0,380.0,293.0,2
12807,-2964,10591,62,-95,877,336.0,302.0,380.0,295.0,2
12395,-3140,11019,586,-289,873,333.0,304.0,402.0,293.0,2
11967,-3016,10987,954,-668,852,336.0,302.0,387.0,290.0,2
11719,-3080,11071,988,-1206,890,336.0,300.0,377.0,293.0,2
11735,-3068,10803,1218,-1451,779,336.0,300.0,380.0,293.0,2
11763,-2864,10767,1278,-1540,628,336.0,302.0,383.0,295.0,2
11791,-2836,10471,1122,-1449,689,333.0,302.0,383.0,293.0,2
12031,-2964,10579,809,-1217,891,336.0,300.0,387.0,286.0,2
12139,-3196,10355,554,-761,957,336.0,302.0,380.0,295.0,2
11915,-3468,10519,532,-561,831,336.0,300.0,380.0,290.0,2
11995,-3608,10535,911,-375,718,333.0,302.0,380.0,293.0,2
12055,-3340,10535,813,-230,668,333.0,302.0,380.0,293.0,2
12095,-3252,10847,397,-121,653,333.0,304.0,387.0,295.0,2
11671,-3608,10875,-27,-65,495,333.0,302.0,380.0,293.0,2
11271,-3756,11247,-452,-233,385,333.0,300.0,380.0,293.0,2
11295,-4120,11195,22,-412,110,333.0,300.0,380.0,290.0,2
11531,-4064,11259,415,-685,-208,333.0,302.0,383.0,295.0,2
11455,-3940,10971,476,-681,-409,336.0,302.0,383.0,290.0,2
11379,-3960,10903,-33,-947,-462,333.0,300.0,383.0,293.0,2
11667,-4164,10627,156,-970,-686,336.0,300.0,380.0,293.0,2
12011,-4040,10323,18,-968,-788,333.0,302.0,383.0,295.0,2
12331,-4104,10483,-303,-847,-1063,336.0,300.0,380.0,297.0,2
12519,-4620,10335,-556,-738,-1220,336.0,300.0,380.0,293.0,2
12743,-4992,10363,-298,-626,-1422,336.0,300.0,383.0,295.0,2
13039,-4768,10123,-24,-393,-1579,336.0,300.0,380.0,295.0,2
12887,-4496,10179,-165,-346,-1697,333.0,300.0,383.0,293.0,2
12811,-4356,10235,-281,-229,-1832,336.0,304.0,383.0,290.0,2
12775,-4224,10199,34,-325,-1844,333.0,297.0,380.0,293.0,2
12391,-3760,9963,823,-461,-1849,333.0,297.0,383.0,295.0,2
12315,-3280,10071,1644,-922,-1662,330.0,302.0,383.0,297.0,2
12059,-2440,9859,3911,-1405,-1191,333.0,304.0,380.0,290.0,2
11871,-1532,9891,3337,-2163,-837,333.0,297.0,377.0,297.0,2
12535,-1400,9351,1515,-2865,-672,336.0,300.0,380.0,295.0,2
12991,-2256,8907,576,-3192,-689,333.0,304.0,383.0,295.0,2
13527,-3036,8971,827,-2851,-610,336.0,302.0,383.0,295.0,2
13727,-3240,9267,1325,-2714,-294,333.0,300.0,377.0,293.0,2
13791,-2788,9679,1089,-1900,159,330.0,300.0,377.0,293.0,2
13331,-2944,10023,402,-1473,330,328.0,297.0,373.0,293.0,2
13615,-3384,9603,264,-848,309,328.0,297.0,370.0,290.0,2
13575,-3420,9739,530,79,584,322.0,300.0,370.0,288.0,2
12947,-2864,9863,888,1143,933,312.0,290.0,357.0,284.0,2
12775,-2908,9859,516,1252,847,307.0,284.0,357.0,284.0,2
12635,-2608,10131,85,1631,649,300.0,286.0,351.0,279.0,2
12531,-3044,9475,-352,1505,627,293.0,284.0,348.0,277.0,2
12659,-3220,9679,313,1633,654,290.0,281.0,345.0,275.0,2
12523,-2768,9771,673,1787,645,286.0,275.0,339.0,273.0,2
12371,-2632,10075,599,1699,505,288.0,275.0,339.0,269.0,2
12223,-2672,10163,109,1634,569,286.0,277.0,336.0,269.0,2
12031,-3168,10015,120,1510,391,286.0,279.0,339.0,269.0,2
12175,-3060,10295,779,1473,287,284.0,277.0,339.0,271.0,2
12071,-2892,10279,787,1316,364,288.0,277.0,330.0,265.0,2
11907,-2844,10711,395,1487,151,286.0,277.0,330.0,265.0,2
11971,-3028,10347,19,1037,-66,286.0,279.0,330.0,265.0,2
12019,-3312,10443,54,1233,-298,286.0,279.0,330.0,267.0,2
11931,-3208,10163,343,1349,-190,290.0,281.0,333.0,267.0,2
11871,-3244,10695,16,1319,-484,295.0,279.0,333.0,259.0,2
11783,-3508,10855,338,1205,-629,293.0,281.0,330.0,263.0,2
11623,-3280,10711,896,1054,-783,302.0,284.0,333.0,263.0,2
11859,-3008,11003,979,840,-752,293.0,279.0,333.0,265.0,2
11811,-2240,10995,1010,727,-537,290.0,279.0,333.0,263.0,2
11983,-2344,10987,673,627,-452,293.0,277.0,342.0,261.0,2
12139,-2540,11107,688,299,-170,293.0,281.0,339.0,263.0,2
12131,-2632,10915,1052,305,228,290.0,281.0,342.0,267.0,2
11999,-2652,11139,952,97,609,290.0,277.0,342.0,265.0,2
12243,-2584,11643,940,-157,716,290.0,279.0,336.0,261.0,2
12295,-3372,11055,1578,-173,1233,293.0,277.0,339.0,261.0,2
12355,-3224,10911,2352,-153,1737,293.0,279.0,348.0,263.0,2
12199,-2268,11239,1717,-401,2316,295.0,275.0,342.0,259.0,2
11843,-2804,10795,766,-502,2346,288.0,275.0,342.0,259.0,2
11787,-3368,10567,684,-1029,2236,293.0,275.0,348.0,259.0,2
11823,-3724,10031,1251,-1132,2366,295.0,279.0,345.0,259.0,2
11659,-3944,9895,2388,-1261,2416,293.0,281.0,345.0,261.0,2
12011,-3644,10015,3714,-1516,2275,295.0,277.0,342.0,259.0,2
11791,-2820,10539,3657,-1952,2290,293.0,277.0,342.0,265.0,2
11931,-2956,10315,3076,-2518,2249,293.0,277.0,339.0,263.0,2
12187,-2944,10187,2763,-2813,2299,293.0,281.0,345.0,261.0,2
12275,-3656,9883,3051,-2931,2425,293.0,281.0,345.0,263.0,2
12239,-3552,10083,4171,-2665,2595,293.0,275.0,339.0,257.0,2
11939,-3120,10231,4631,-2565,2698,293.0,275.0,342.0,261.0,2
11895,-2856,10567,3963,-2505,2695,293.0,277.0,342.0,263.0,2
12067,-3484,10443,1412,-2194,2375,295.0,281.0,345.0,261.0,2
12191,-4012,10611,1098,-1852,2022,295.0,284.0,342.0,259.0,2
12303,-3992,10627,847,-1522,1734,293.0,279.0,339.0,261.0,2
12127,-4092,10547,950,-997,1313,293.0,277.0,339.0,261.0,2
12039,-4348,10563,988,-992,854,293.0,281.0,339.0,259.0,2
12343,-4116,10583,1030,-786,285,293.0,281.0,339.0,255.0,2
12339,-3432,10487,489,-736,-40,295.0,277.0,339.0,265.0,2
12143,-3280,10695,-120,-631,-491,293.0,275.0,339.0,261.0,2
12563,-3612,10055,-162,-583,-666,293.0,279.0,339.0,263.0,2
13039,-3556,9831,779,-222,-733,293.0,277.0,339.0,263.0,2
12547,-2144,10327,-1689,281,-1063,295.0,284.0,339.0,261.0,2
12723,-3324,10015,-3217,196,-1709,293.0,275.0,336.0,261.0,2
12943,-4780,10631,-2027,53,-2443,295.0,277.0,333.0,257.0,2
12435,-3792,11007,-433,137,-2592,293.0,281.0,342.0,261.0,2
11971,-2580,11135,-452,-6,-2368,293.0,284.0,339.0,261.0,2
12255,-1944,10791,-757,-462,-2481,295.0,279.0,336.0,259.0,2
13051,-2000,10483,-982,-533,-2583,293.0,279.0,339.0,261.0,2
12755,-2212,10619,-1821,-646,-2689,293.0,279.0,342.0,263.0,2
12607,-2636,10047,-2244,-67,-2664,290.0,281.0,339.0,261.0,2
12511,-3224,10063,-3228,-56,-2676,293.0,284.0,339.0,259.0,2
12027,-4252,10335,-4096,-112,-3449,295.0,281.0,339.0,261.0,2
11995,-4148,10467,-3320,10,-3606,293.0,279.0,342.0,259.0,2
11967,-3712,10195,-3097,189,-3240,293.0,284.0,342.0,263.0,2
11743,-4072,9979,-2645,276,-3012,293.0,281.0,345.0,261.0,2
11403,-3788,10583,-2423,232,-3269,293.0,279.0,339.0,259.0,2
11447,-3324,10183,-2360,162,-3126,293.0,281.0,342.0,261.0,2
11243,-2944,9887,-2638,180,-2833,293.0,281.0,339.0,261.0,2
11679,-3140,9871,-2134,-183,-2262,293.0,284.0,345.0,263.0,2
11851,-3168,10083,-1887,39,-1994,293.0,286.0,348.0,265.0,2
12091,-3032,9647,-2122,17,-1534,293.0,286.0,345.0,265.0,2
13271,-3516,8835,-2446,191,-594,293.0,279.0,345.0,267.0,2
12883,-4128,8975,-2101,550,-332,295.0,286.0,345.0,269.0,2
12995,-5796,9411,1296,1307,-314,295.0,286.0,345.0,267.0,2
13283,-4180,9923,3120,1712,-967,295.0,288.0,351.0,267.0,2
13199,-2508,10355,2651,742,-1233,293.0,284.0,345.0,267.0,2
12567,-1348,10395,148,-237,-1513,293.0,281.0,348.0,271.0,2
12019,-936,9103,-10485,-2332,209,295.0,288.0,348.0,269.0,2
14343,-5424,9819,-6135,-4780,-181,295.0,290.0,348.0,267.0,2
12175,-4272,9963,-517,1129,-3866,295.0,288.0,345.0,269.0,2
12579,-2836,10071,-235,-1326,-4088,293.0,286.0,345.0,269.0,2
12735,-2864,10063,27,52,-2808,295.0,286.0,345.0,269.0,2
12579,-3132,10187,-531,-1656,-785,295.0,290.0,345.0,267.0,2
12679,-3296,9979,30,-2024,-336,295.0,290.0,348.0,265.0,2
13319,-3040,9827,313,-1798,-1218,293.0,290.0,342.0,269.0,2
13267,-2544,10075,-71,-600,-2187,295.0,286.0,345.0,267.0,2
13187,-3712,9023,-2005,1415,-3366,295.0,290.0,348.0,269.0,2
14223,-5836,9059,2963,1122,-12254,293.0,290.0,351.0,269.0,2
14267,1408,10991,758,1228,-5412,295.0,290.0,345.0,271.0,2
11587,-4580,9635,-271,899,-5517,295.0,288.0,348.0,269.0,2
12279,-624,10059,-409,-1428,-2625,295.0,284.0,345.0,267.0,2
12735,-1508,9659,-1168,-4160,1051,293.0,286.0,348.0,269.0,2
12859,-516,9475,-3033,-6242,2788,295.0,290.0,348.0,269.0,2
13779,-1088,9551,-5932,-7603,3501,293.0,286.0,345.0,263.0,2
14783,-2728,7655,-5069,-5693,3807,293.0,286.0,345.0,267.0,2
14631,-5108,7035,-624,-1602,2468,293.0,290.0,345.0,267.0,2
13991,-2752,8891,2301,1230,1716,293.0,290.0,351.0,267.0,2
12979,-3440,9563,2033,1061,1429,293.0,293.0,345.0,269.0,2
13455,-3912,9875,3545,675,581,293.0,288.0,348.0,267.0,2
12879,-2804,9991,4332,886,-592,293.0,288.0,345.0,265.0,2
12143,-832,10295,391,-1114,-1539,293.0,290.0,348.0,267.0,2
12739,-2668,9491,-1791,-2691,-1063,293.0,290.0,348.0,265.0,2
12387,-5780,8799,-1398,-1791,496,293.0,286.0,342.0,267.0,2
13067,-5216,8851,897,-1634,1913,290.0,288.0,348.0,267.0,2
13171,-3612,8551,1653,-605,1799,295.0,290.0,348.0,267.0,2
12703,-3308,8647,299,-871,804,295.0,295.0,351.0,269.0,2
13271,-3836,8595,-164,-2167,10,295.0,297.0,348.0,265.0,2
13463,-3548,8371,402,-1960,553,293.0,297.0,351.0,269.0,2
13907,-3288,7583,776,-1625,721,293.0,295.0,351.0,265.0,2
14315,-2476,7999,356,-1443,879,293.0,300.0,351.0,267.0,2
14411,-2732,8063,-327,-1486,1163,293.0,300.0,354.0,269.0,2
14263,-2516,8335,-403,-1544,1517,295.0,297.0,360.0,265.0,2
14259,-2856,8243,-490,-1593,1907,293.0,300.0,351.0,265.0,2
14207,-3356,7979,-558,-1389,2117,295.0,304.0,354.0,263.0,2
14211,-4024,7715,80,-981,2198,293.0,300.0,354.0,267.0,2
14267,-3092,7907,-326,-757,2214,293.0,297.0,357.0,267.0,2
14071,-3368,7203,-1388,-451,2587,293.0,304.0,351.0,265.0,2
13975,-4356,7207,-1011,-124,2542,293.0,297.0,354.0,265.0,2
14195,-4328,6935,-715,517,2630,293.0,304.0,354.0,265.0,2
13775,-4312,6851,-643,1261,2431,295.0,300.0,354.0,265.0,2
13995,-5024,7063,-389,1930,1731,295.0,300.0,357.0,267.0,2
13983,-5716,7487,916,3139,-133,293.0,297.0,351.0,265.0,2
13523,-5112,8071,1402,3482,-1151,293.0,297.0,348.0,261.0,2
12975,-4956,8007,1994,3603,-1799,295.0,300.0,351.0,267.0,2
12615,-4644,8527,2839,3376,-2374,295.0,297.0,351.0,265.0,2
12935,-3756,9407,2712,3073,-2590,293.0,304.0,345.0,265.0,2
12967,-3640,9999,2229,2643,-2705,295.0,297.0,351.0,265.0,2
13051,-3580,10031,2133,2322,-2819,293.0,297.0,351.0,265.0,2
13235,-3508,10179,2286,2021,-2790,295.0,295.0,348.0,267.0,2
13523,-3164,10135,1911,1795,-2276,295.0,295.0,354.0,267.0,2
13859,-3856,9971,1794,1460,-2038,293.0,293.0,354.0,265.0,2
13883,-4220,9427,3124,1870,-2438,295.0,293.0,348.0,269.0,2
13871,-3864,9543,3100,1919,-2702,295.0,297.0,351.0,265.0,2
13459,-2808,10291,1366,1489,-2631,295.0,297.0,354.0,263.0,2
13191,-2764,10107,-88,1222,-2435,295.0,300.0,348.0,263.0,2
12907,-3088,10287,371,1240,-2274,295.0,295.0,348.0,263.0,2
12479,-2148,10275,1089,1541,-1886,295.0,290.0,351.0,265.0,2
11995,-1352,10623,686,1431,-1368,295.0,297.0,351.0,263.0,2
11855,-1428,10355,224,1465,-1100,295.0,295.0,351.0,267.0,2
11763,-1740,10359,194,1335,-906,293.0,300.0,345.0,267.0,2
12055,-2084,10359,793,1327,-697,295.0,295.0,345.0,263.0,2
12411,-1280,10187,-999,1399,-27,295.0,300.0,354.0,267.0,2
12831,-2184,10103,-2430,1222,-190,307.0,295.0,351.0,265.0,2
12931,-2832,9919,-2028,1394,-568,295.0,300.0,351.0,263.0,2
13035,-3048,10343,-1548,1379,-545,293.0,293.0,348.0,267.0,2
13007,-2820,10515,-1348,1301,-202,302.0,297.0,357.0,263.0,2
12639,-2720,10571,-1441,1199,-145,295.0,297.0,354.0,265.0,2
12107,-2736,11011,-1624,789,-314,295.0,300.0,351.0,265.0,2
11867,-2792,11115,-1212,347,-296,302.0,297.0,354.0,267.0,2
11659,-2928,10919,-811,28,-92,295.0,295.0,348.0,263.0,2
11631,-3036,10639,-472,-234,10,293.0,290.0,345.0,265.0,2
11875,-2856,10743,-578,-662,6,295.0,295.0,348.0,265.0,2
12031,-3160,10439,-537,-820,7,293.0,295.0,348.0,267.0,2
12191,-3264,10171,-408,-947,46,293.0,293.0,351.0,263.0,2
12551,-3332,9859,-231,-936,35,293.0,295.0,348.0,263.0,2
12859,-3372,9779,-68,-792,-24,293.0,295.0,348.0,265.0,2
13003,-3288,9547,-34,-140,328,290.0,295.0,354.0,265.0,2
12951,-3360,9503,23,152,417,295.0,300.0,348.0,263.0,2
12671,-3412,9619,82,248,402,295.0,293.0,348.0,263.0,2
12651,-3608,9467,5,388,447,297.0,297.0,351.0,265.0,2
12603,-3696,9739,194,289,259,295.0,295.0,348.0,265.0,2
12507,-3416,9927,495,382,197,293.0,295.0,351.0,265.0,2
12215,-3296,10159,602,237,201,295.0,293.0,348.0,263.0,2
12147,-3396,10615,660,1,7,293.0,295.0,348.0,267.0,2
12027,-3304,10595,682,-338,-3,293.0,293.0,351.0,263.0,2
11927,-3344,11007,885,-513,45,293.0,297.0,354.0,267.0,2
11643,-3204,11047,579,-726,98,293.0,300.0,348.0,263.0,2
11551,-3576,10931,555,-772,58,295.0,295.0,348.0,265.0,2
11555,-3660,10591,586,-713,66,295.0,290.0,354.0,267.0,2
11959,-3704,10503,545,-600,185,295.0,295.0,351.0,265.0,2
12243,-3568,10131,245,-151,187,295.0,297.0,351.0,263.0,2
12279,-3856,9747,-236,-6,67,293.0,293.0,348.0,267.0,2
12343,-4152,9555,-210,104,40,293.0,293.0,351.0,263.0,2
12587,-4016,9339,-28,330,47,293.0,293.0,345.0,267.0,2
12699,-3604,9375,33,720,-329,295.0,293.0,351.0,263.0,2
12607,-3304,9247,60,862,-707,293.0,295.0,351.0,267.0,2
12519,-3312,9391,175,794,-694,295.0,300.0,351.0,263.0,2
12591,-3256,9555,190,641,-561,295.0,293.0,345.0,265.0,2
12943,-3364,9815,488,414,-711,293.0,300.0,351.0,263.0,2
12911,-3160,10375,729,330,-850,297.0,297.0,351.0,265.0,2
12623,-2956,10603,532,125,-736,293.0,295.0,348.0,267.0,2
12631,-3180,11091,539,-83,-651,297.0,295.0,348.0,265.0,2
12063,-3100,11455,402,-391,-555,295.0,293.0,348.0,265.0,2
11631,-3460,11659,88,-770,-152,297.0,290.0,348.0,269.0,2
11555,-4136,11207,494,-1165,162,295.0,295.0,351.0,265.0,2
11879,-3956,11279,1048,-1196,-41,295.0,293.0,351.0,265.0,2
11871,-3904,10679,1072,-1197,-236,293.0,290.0,351.0,265.0,2
12235,-3824,10707,898,-1312,-535,295.0,293.0,348.0,265.0,2
12399,-3716,10331,557,-1213,-864,295.0,293.0,345.0,267.0,2
12235,-3980,10143,328,-1166,-995,295.0,297.0,351.0,267.0,2
12559,-3788,10203,153,-946,-1147,295.0,295.0,351.0,267.0,2
12747,-3664,9935,-62,-526,-1337,295.0,295.0,348.0,265.0,2
12195,-3236,10439,-348,-57,-1401,295.0,290.0,351.0,267.0,2
12191,-3136,10875,-827,-55,-1159,295.0,295.0,351.0,265.0,2
11847,-3296,10943,-1007,-128,-970,295.0,295.0,351.0,263.0,2
11331,-3424,10963,-1141,-203,-819,293.0,293.0,351.0,265.0,2
11363,-3540,10503,-1056,-544,-565,290.0,290.0,348.0,265.0,2
11687,-3388,9899,-707,-567,-342,295.0,290.0,351.0,265.0,2
12139,-3436,9335,-416,-721,-270,295.0,295.0,348.0,265.0,2
12879,-3256,9167,-98,-688,-132,295.0,295.0,351.0,265.0,2
13343,-3116,8895,-154,-423,-81,293.0,293.0,351.0,261.0,2
13315,-3024,8939,-134,-231,-303,295.0,293.0,345.0,261.0,2
13239,-3244,8763,248,-156,-656,295.0,293.0,345.0,261.0,2
12955,-3056,9031,575,45,-776,295.0,293.0,342.0,259.0,2
12603,-2700,9275,783,203,-754,295.0,293.0,339.0,259.0,2
12547,-2572,9539,798,279,-707,295.0,288.0,339.0,259.0,2
12327,-2492,9915,704,271,-673,297.0,295.0,339.0,257.0,2
12291,-2632,9927,705,303,-601,293.0,293.0,342.0,261.0,2
12339,-2612,10051,672,298,-412,295.0,290.0,345.0,259.0,2
12519,-2716,10167,577,221,-308,293.0,293.0,339.0,259.0,2
12643,-3008,10475,764,145,-382,290.0,290.0,342.0,259.0,2
12811,-2980,10463,947,57,-375,293.0,288.0,342.0,261.0,2
12951,-3052,10427,754,37,-258,295.0,293.0,342.0,259.0,2
13119,-3192,10639,776,-54,-278,295.0,290.0,342.0,261.0,2
12971,-3216,10735,846,-24,-460,293.0,290.0,342.0,259.0,2
12751,-3020,10667,819,-5,-460,295.0,290.0,339.0,257.0,2
12591,-3052,10711,586,35,-355,295.0,288.0,336.0,255.0,2
12715,-2804,10959,380,110,-213,295.0,290.0,345.0,259.0,2
12599,-2920,10723,200,225,-120,295.0,290.0,345.0,259.0,2
12515,-2888,10707,39,358,-33,293.0,290.0,339.0,259.0,2
12355,-2888,10507,-83,326,111,295.0,288.0,342.0,259.0,2
12147,-2920,10431,40,148,90,295.0,290.0,339.0,257.0,2
12171,-2772,10395,67,-31,-16,295.0,293.0,345.0,259.0,2
12167,-2852,10151,18,-230,-18,295.0,293.0,345.0,259.0,2
12059,-2912,10003,131,-289,-51,293.0,293.0,339.0,257.0,2
12259,-2952,9535,312,-179,-102,295.0,290.0,339.0,259.0,2
12579,-2948,9567,380,-131,-53,295.0,288.0,339.0,257.0,2
12823,-3052,9551,570,52,-24,328.0,293.0,345.0,257.0,2
12839,-2936,10023,467,264,49,295.0,290.0,342.0,257.0,2
12799,-3208,10295,441,285,291,295.0,293.0,339.0,255.0,2
12627,-3320,10615,221,512,103,297.0,293.0,342.0,255.0,2
12391,-3384,10931,116,489,59,288.0,293.0,345.0,259.0,2
12339,-3332,11063,-72,551,32,293.0,293.0,342.0,259.0,2
12043,-3432,11187,-321,503,139,293.0,288.0,342.0,257.0,2
11971,-3616,11023,-309,499,139,295.0,290.0,339.0,259.0,2
12015,-3600,10771,-390,353,177,297.0,290.0,339.0,255.0,2
11983,-3624,10603,-383,172,109,295.0,290.0,339.0,259.0,2
12131,-3448,10259,-371,87,-74,295.0,293.0,345.0,257.0,2
12379,-3444,9887,-193,-248,-210,295.0,290.0,339.0,257.0,2
12503,-3416,9655,13,-219,-152,295.0,293.0,345.0,261.0,2
12307,-3320,9667,201,-301,-155,295.0,293.0,345.0,259.0,2
12403,-3276,9599,334,-348,-216,295.0,290.0,342.0,259.0,2
12319,-3216,9491,714,-289,-217,293.0,293.0,339.0,259.0,2
12403,-3212,9795,785,-253,-216,295.0,293.0,336.0,257.0,2
12583,-3212,9851,733,-183,-133,293.0,290.0,339.0,259.0,2
12427,-3296,10271,847,-135,-208,295.0,295.0,345.0,259.0,2
12359,-3132,10439,775,-69,-102,295.0,293.0,342.0,257.0,2
12315,-3240,10651,520,-58,8,295.0,290.0,342.0,255.0,2
12275,-3416,11015,496,9,46,295.0,290.0,339.0,257.0,2
12051,-3488,11075,555,-89,83,297.0,290.0,345.0,259.0,2
12027,-3324,11203,353,-149,162,295.0,293.0,342.0,257.0,2
12051,-3324,10975,81,-290,207,295.0,293.0,342.0,257.0,2
11863,-3660,10815,99,-335,59,293.0,290.0,342.0,259.0,2
11955,-3820,10615,241,-408,-59,295.0,290.0,339.0,257.0,2
11943,-3840,10339,470,-424,-53,295.0,293.0,339.0,261.0,2
12131,-3636,10191,382,-494,147,295.0,293.0,345.0,261.0,2
12347,-3680,10187,43,-606,86,288.0,295.0,345.0,259.0,2
12279,-3880,10063,251,-686,-242,302.0,293.0,345.0,257.0,2
12191,-3900,10239,590,-839,-315,295.0,288.0,342.0,257.0,2
12239,-3612,10167,918,-939,-110,295.0,290.0,339.0,259.0,2
12283,-3348,10303,986,-871,-56,295.0,297.0,345.0,257.0,2
12183,-3084,10027,732,-847,90,284.0,295.0,342.0,257.0,2
12423,-3272,9935,684,-713,240,295.0,293.0,348.0,257.0,2
12303,-3028,10103,844,-578,428,295.0,293.0,342.0,255.0,2
12247,-3052,9983,863,-395,686,295.0,290.0,339.0,259.0,2
12007,-2948,9939,959,-352,875,295.0,293.0,342.0,257.0,2
12015,-3040,10115,918,-370,861,295.0,295.0,342.0,255.0,2
11935,-2936,10007,1071,-390,718,295.0,290.0,342.0,257.0,2
11999,-3040,10107,1176,-271,520,295.0,290.0,342.0,255.0,2
12207,-3012,10215,1206,-212,478,293.0,293.0,345.0,257.0,2
12223,-2936,10063,1174,-104,308,295.0,293.0,342.0,259.0,2
12343,-3104,10179,1182,30,60,293.0,293.0,345.0,257.0,2
12427,-3088,10275,1228,130,-119,295.0,293.0,342.0,257.0,2
12671,-3252,10291,960,264,-251,295.0,293.0,342.0,255.0,2
12831,-3312,10355,856,395,-362,293.0,290.0,345.0,255.0,2
12763,-3220,10407,659,547,-468,295.0,293.0,348.0,259.0,2
12739,-3204,10679,566,419,-472,295.0,293.0,348.0,259.0,2
12627,-2920,11199,370,352,-418,295.0,293.0,342.0,259.0,2
12403,-3144,11151,288,173,-501,295.0,290.0,342.0,255.0,2
12123,-3088,11223,167,-25,-452,304.0,288.0,339.0,259.0,2
12047,-3080,11071,91,-181,-307,295.0,293.0,348.0,259.0,2
12363,-3152,11103,-72,-267,-152,295.0,290.0,345.0,259.0,2
12439,-3264,11035,-272,-204,-151,295.0,293.0,342.0,259.0,2
12259,-3496,10751,-316,-247,-54,295.0,290.0,345.0,257.0,2
12395,-3644,10763,-407,-151,30,297.0,295.0,339.0,259.0,2
12431,-3720,10471,-507,33,158,293.0,293.0,345.0,257.0,2
12067,-3760,10595,-484,165,72,295.0,295.0,345.0,259.0,2
12043,-3724,10471,-571,239,-23,295.0,290.0,342.0,255.0,2
11967,-3648,10459,-610,176,-61,295.0,284.0,345.0,259.0,2
11863,-3648,10247,-626,239,-128,297.0,297.0,342.0,257.0,2
11791,-3744,10155,-524,197,-167,295.0,293.0,345.0,259.0,2
11683,-3740,10191,-470,104,-161,293.0,290.0,345.0,253.0,2
11755,-3640,10135,-428,8,-193,295.0,293.0,345.0,257.0,2
11767,-3900,9875,-358,-158,-251,293.0,290.0,342.0,255.0,2
12075,-3804,9975,-153,-200,-322,297.0,288.0,339.0,267.0,2
12163,-3724,10067,26,-307,-305,295.0,295.0,345.0,259.0,2
12471,-3704,9939,79,-351,-213,295.0,295.0,345.0,259.0,2
12439,-3804,10043,130,-324,-275,295.0,288.0,342.0,257.0,2
12459,-3812,10219,153,-377,-299,295.0,290.0,339.0,255.0,2
12387,-3756,10263,236,-327,-186,293.0,288.0,345.0,257.0,2
12515,-3800,10099,148,-125,-83,295.0,293.0,345.0,259.0,2
12403,-3804,10087,38,2,-28,295.0,293.0,345.0,261.0,2
12515,-4008,10203,151,315,-69,295.0,293.0,342.0,255.0,2
13031,-3676,10043,210,600,-196,295.0,290.0,342.0,257.0,2
13635,-3452,10555,85,955,-309,295.0,290.0,345.0,259.0,2
13595,-3444,10607,-208,942,-138,295.0,293.0,345.0,257.0,2
12859,-3392,11087,-418,534,161,295.0,293.0,342.0,257.0,2
12419,-3756,11531,-210,-255,421,293.0,290.0,342.0,259.0,2
11775,-3764,11499,174,-1223,776,295.0,290.0,339.0,257.0,2
11315,-3988,11499,798,-2044,863,295.0,293.0,339.0,257.0,2
11115,-3716,11419,896,-2995,936,295.0,293.0,345.0,259.0,2
10827,-4100,11123,814,-3596,945,295.0,293.0,339.0,255.0,2
10795,-4308,10367,1197,-3902,774,293.0,290.0,342.0,257.0,2
11283,-4332,9843,1130,-3738,734,293.0,290.0,342.0,257.0,2
11387,-4532,9495,861,-3220,586,293.0,286.0,342.0,261.0,2
11591,-4720,9143,981,-2417,326,295.0,295.0,345.0,261.0,2
11791,-4432,8807,1022,-1492,212,295.0,293.0,348.0,261.0,2
11867,-4120,8727,1064,-474,10,295.0,293.0,342.0,257.0,2
11779,-3684,8871,906,230,-237,295.0,290.0,339.0,257.0,2
11767,-3540,9311,608,809,-574,293.0,295.0,342.0,259.0,2
11583,-3600,9131,827,1174,-822,295.0,295.0,339.0,261.0,2
11763,-3400,9767,899,1329,-812,295.0,295.0,345.0,261.0,2
12115,-3288,9943,953,1590,-644,295.0,293.0,342.0,259.0,2
12355,-3352,10395,934,1552,-726,295.0,290.0,342.0,257.0,2
12311,-3616,10867,445,1347,-357,297.0,295.0,345.0,261.0,2
12687,-3764,10775,378,1175,-118,300.0,295.0,342.0,259.0,2
12507,-3732,11075,210,878,-130,302.0,293.0,342.0,259.0,2
12659,-3916,10811,255,583,-220,302.0,290.0,342.0,257.0,2
12419,-3824,10707,369,425,-410,300.0,288.0,342.0,259.0,2
12127,-3628,10731,429,68,-445,302.0,295.0,345.0,259.0,2
12039,-3484,10519,220,-174,-378,302.0,295.0,342.0,263.0,2
11943,-3540,10123,349,-320,-499,302.0,293.0,342.0,257.0,2
12131,-3372,10107,637,-257,-521,302.0,293.0,342.0,257.0,2
12223,-3088,9923,534,-258,-479,300.0,290.0,345.0,261.0,2
12347,-3372,9815,314,-45,-528,300.0,295.0,342.0,263.0,2
12423,-3524,10051,372,152,-496,302.0,293.0,342.0,259.0,2
12519,-3416,10015,407,266,-530,302.0,290.0,342.0,259.0,2
12639,-3552,10071,372,298,-598,300.0,290.0,339.0,259.0,2
12415,-3604,10211,477,373,-651,300.0,297.0,345.0,259.0,2
12271,-3552,10259,598,283,-640,300.0,293.0,339.0,257.0,2
12299,-3460,10387,662,28,-589,302.0,293.0,342.0,257.0,2
12291,-3432,10623,682,-122,-435,302.0,290.0,342.0,257.0,2
12275,-3668,10419,914,-240,-353,300.0,297.0,339.0,257.0,2
12163,-3580,10559,917,-246,-229,300.0,295.0,345.0,259.0,2
12107,-3528,10711,677,-49,-129,300.0,293.0,345.0,257.0,2
12295,-3808,10723,45,-211,135,300.0,293.0,342.0,259.0,2
12835,-4288,10727,-22,-158,159,300.0,293.0,345.0,263.0,2
12983,-4424,10247,241,51,95,300.0,295.0,345.0,257.0,2
13235,-4072,10071,117,141,247,300.0,293.0,345.0,259.0,2
13583,-4012,9867,8,410,161,300.0,293.0,342.0,255.0,2
13623,-3888,9719,29,563,85,297.0,288.0,342.0,257.0,2
13383,-3848,9907,-93,609,211,302.0,297.0,345.0,261.0,2
12867,-3868,10075,-53,656,396,300.0,295.0,345.0,259.0,2
12487,-3588,10207,90,563,347,300.0,295.0,345.0,257.0,2
11875,-3400,10447,137,207,325,297.0,293.0,339.0,257.0,2
11723,-3552,10359,293,108,346,300.0,288.0,339.0,255.0,2
11523,-3408,10575,392,-196,351,304.0,288.0,342.0,255.0,2
11371,-3656,10395,562,-464,305,300.0,290.0,345.0,259.0,2
11299,-3540,10595,705,-779,286,300.0,293.0,339.0,259.0,2
13943,-2776,8171,244,-347,288,155.0,336.0,470.0,363.0,3
13667,-2744,7983,790,-377,271,156.0,336.0,465.0,363.0,3
13407,-2576,8267,1109,-608,299,159.0,333.0,465.0,363.0,3
13503,-2568,8163,1315,-655,253,157.0,320.0,465.0,363.0,3
13087,-2240,8275,1482,-961,228,156.0,320.0,470.0,360.0,3
12971,-2352,8519,1640,-827,100,157.0,339.0,465.0,360.0,3
12863,-2304,8563,1954,-816,-57,156.0,333.0,465.0,363.0,3
12587,-2156,8547,2150,-533,-292,158.0,322.0,465.0,360.0,3
12563,-2268,8563,2170,-314,-539,156.0,328.0,465.0,360.0,3
12115,-2544,8619,2111,-199,-855,156.0,314.0,461.0,360.0,3
12391,-2612,8783,1839,-115,-1271,157.0,336.0,461.0,360.0,3
13231,-3440,8363,1771,58,-2014,157.0,330.0,465.0,363.0,3
13555,-3148,8759,2300,58,-2573,157.0,322.0,465.0,360.0,3
13875,-2816,8563,2385,108,-3211,156.0,342.0,465.0,363.0,3
13987,-2776,8455,2268,-80,-3817,157.0,330.0,465.0,360.0,3
14247,-2916,8763,2101,-177,-4367,157.0,325.0,465.0,363.0,3
14971,-2796,8819,2115,-231,-4685,157.0,322.0,465.0,363.0,3
14987,-2616,9075,3143,35,-4845,156.0,322.0,465.0,363.0,3
